File: instrument_data/TGA/Co(phen)2(SCN)2 electromagnet RT-325-100 20C11142022.csv
Filename,Co(phen)2(SCN)2 electromagnet RT-325-100 20C11142022
Instrument name,5500-0566 (192.168.10.4)
Operator,Adam K
rundate,11/14/2022
Sample name,Co(phen)2(SCN)2 electromagnet RT-325-100 20C
proceduresegments,Equilibrate 120.00 °C; Isothermal 1.0 min; Electromagnet On 60.0 %; Equilibrate 120.00 °C; Ramp 20.00 °C/min to 325.00 °C; Ramp 20.00 °C/min to 100.00 °C; Equilibrate 100.00 °C
[File Parameters]
Run date,11/14/2022 3:49:10 PM
Trios version,5.3.0.48151
Original File Name,C:\ProgramData\TA Instruments\TRIOS\Data\CH302_B3_22_AK\Co(phen)2(SCN)2 electromagnet RT-325-100 20C11142022.tri
Current File Name,C:/ProgramData/TA Instruments/TRIOS/Data/CH302_B3_22_AK/Co(phen)2(SCN)2 electromagnet RT-325-100 20C11142022.tri
User at run start,CH-CBWNNF3-0721\ChemLocal
[Procedure]
Procedure Name,
Sample Name,Co(phen)2(SCN)2 electromagnet RT-325-100 20C
Pan Number,3
Sample Mass,12.630 mg
Pan Type,Aluminum
Comments,
Project Name,Spin Crossover
Operator,Adam K
Test,Custom
Skip Weight Stabilization,False
Sample mass pre-weigh,Not Available
Stop on Gas Flow Error,No
[Signal List]
Signal #1,Time (min)
Signal #2,Temperature (°C)
Signal #3,Weight (mg)
Signal #4,Temperature Difference (°C)
Signal #5,Sample Purge (mL/min)
Signal #6,Balance Purge (mL/min)
Signal #7,Set Point Temperature (°C)
Signal #8,Power Delivered (W)
Signal #9,Ramp Rate (°C/min)
[Configuration]
Company Name,localcc
Instrument Name,5500-0566
Instrument Type,TGA5500
Serial Number,5500-0566
IP,192.168.10.4
Location of Instrument,Olin Hall Rm 364
DisplayType,TianmaV2
Sample Interval ,0.1 s/pt
Gas 1,Nitrogen
Gas 2,Air
Selected Gas Channel,1
MTGA HiRes Licensed,Yes
[Versions]
Common IDD Version,1
Cortex Version,VER 2.1.2.60
Driver,5.0.0.6
GDM Version,1.2.1.2
TouchscreenVersion,1.0.3.1795
PCU Version,1.2.0.15
Transducer Version,1.1.0.32
[Experiment Logs]
Experiment Log Entry # 1,Equilibrate Segment 120 (C) Started
Experiment Log Entry # 3,Isothermal Segment 1 min started
Experiment Log Entry # 5,"Curie Magnet Segment enable 1, 60 %"
Experiment Log Entry # 7,Equilibrate Segment 120 (C) Started
Experiment Log Entry # 9,Ramp Segment 20 C/min to 325 C Started
Experiment Log Entry # 11,Ramp Segment 20 C/min to 100 C Started
Experiment Log Entry # 13,Ending Experiment because user stopped
Experiment Log Entry # 15,Ending Experiment
[Method Log]
Method Log Entry # 1,Equilibrate 120 °C
Method Log Entry # 2,Isothermal 1 minutes
Method Log Entry # 3,Electromagnet On 60 %
Method Log Entry # 4,Equilibrate 120 °C
Method Log Entry # 5,(Ramp 6177) Ramp 20 °C/minute to 325 °C
Method Log Entry # 6,(Ramp 6178) Ramp 20 °C/minute to 100 °C
[Weight Calibration]
Date Applied,7/20/2022 10:21:44 AM
Empty Pan Number,23
Empty Pan Weight,341.358 mg
Low Reference Weight Pan Number,24
Low Reference Weight,442.546 mg
High Reference Weight Pan Number,25
High Reference Weight,"1,243.774 mg"
Low Gain Meter Reading,9.9772E-006 mg/count
High Gain Meter Reading,7.9459E-005 mg/count
Low Meter Offset,31.8759 mg
High Meter Offset,613.7978 mg
[Curie Calibration]
Date Applied,8/11/2021 12:40:46 PM
Description,From 256.990 °C to 456.990 °C at 20.000°C/min
Gas Type,Nitrogen
Pan Type,Platinum (100 uL)
Source Files 1,C:\ProgramData\TA Instruments\TRIOS\Data\Nickel Calibration.tri
Source Files 2,C:\ProgramData\TA Instruments\TRIOS\Data\Alumel Calibration.tri
Measured 1,158.9083
Known 1,154.16
Measured 2,358.1255
Known 2,356.99
[step]
Isothermal 1.0 min
Time,Temperature,Weight,Weight
min,°C,mg,%
0.00,120.13,12.530,99.208
0.00,120.13,12.530,99.208
0.00,120.13,12.530,99.208
0.01,120.13,12.530,99.208
0.01,120.13,12.530,99.208
0.01,120.13,12.530,99.208
0.01,120.13,12.530,99.208
0.01,120.14,12.530,99.208
0.01,120.14,12.530,99.208
0.01,120.14,12.530,99.208
0.02,120.14,12.530,99.208
0.02,120.14,12.530,99.208
0.02,120.14,12.530,99.208
0.02,120.14,12.530,99.208
0.02,120.14,12.530,99.208
0.03,120.15,12.530,99.208
0.03,120.15,12.530,99.208
0.03,120.15,12.530,99.208
0.03,120.15,12.530,99.208
0.03,120.15,12.530,99.208
0.03,120.15,12.530,99.208
0.03,120.15,12.530,99.207
0.04,120.15,12.530,99.207
0.04,120.16,12.530,99.207
0.04,120.16,12.530,99.207
0.04,120.16,12.530,99.207
0.04,120.16,12.530,99.207
0.05,120.16,12.530,99.207
0.05,120.16,12.530,99.207
0.05,120.16,12.530,99.207
0.05,120.16,12.530,99.207
0.05,120.16,12.530,99.207
0.05,120.17,12.530,99.207
0.05,120.17,12.530,99.207
0.06,120.17,12.530,99.207
0.06,120.17,12.530,99.206
0.06,120.17,12.530,99.206
0.06,120.17,12.530,99.206
0.06,120.17,12.530,99.206
0.07,120.17,12.530,99.206
0.07,120.17,12.530,99.206
0.07,120.18,12.530,99.206
0.07,120.18,12.530,99.206
0.07,120.18,12.530,99.206
0.07,120.18,12.530,99.206
0.08,120.18,12.530,99.206
0.08,120.18,12.530,99.206
0.08,120.18,12.530,99.206
0.08,120.18,12.530,99.206
0.08,120.18,12.530,99.206
0.08,120.19,12.530,99.206
0.08,120.19,12.530,99.206
0.09,120.19,12.530,99.205
0.09,120.19,12.530,99.205
0.09,120.19,12.530,99.205
0.09,120.19,12.530,99.205
0.09,120.19,12.530,99.205
0.09,120.19,12.530,99.205
0.10,120.19,12.530,99.205
0.10,120.19,12.530,99.205
0.10,120.20,12.530,99.205
0.10,120.20,12.530,99.205
0.10,120.20,12.530,99.204
0.11,120.20,12.530,99.204
0.11,120.20,12.530,99.204
0.11,120.20,12.530,99.204
0.11,120.20,12.530,99.204
0.11,120.20,12.530,99.204
0.11,120.20,12.530,99.204
0.12,120.20,12.530,99.204
0.12,120.21,12.530,99.204
0.12,120.21,12.530,99.204
0.12,120.21,12.530,99.204
0.12,120.21,12.530,99.204
0.12,120.21,12.530,99.204
0.13,120.21,12.530,99.204
0.13,120.21,12.530,99.204
0.13,120.21,12.530,99.204
0.13,120.21,12.530,99.204
0.13,120.21,12.530,99.204
0.13,120.22,12.530,99.204
0.14,120.22,12.530,99.204
0.14,120.22,12.530,99.204
0.14,120.22,12.530,99.204
0.14,120.22,12.530,99.204
0.14,120.22,12.530,99.204
0.14,120.22,12.530,99.204
0.14,120.22,12.530,99.204
0.15,120.22,12.530,99.204
0.15,120.22,12.530,99.204
0.15,120.22,12.530,99.204
0.15,120.23,12.530,99.203
0.15,120.23,12.530,99.203
0.16,120.23,12.530,99.203
0.16,120.23,12.530,99.203
0.16,120.23,12.530,99.203
0.16,120.23,12.530,99.203
0.16,120.23,12.530,99.203
0.16,120.23,12.530,99.203
0.16,120.23,12.530,99.203
0.17,120.23,12.530,99.203
0.17,120.23,12.530,99.203
0.17,120.24,12.530,99.203
0.17,120.24,12.530,99.203
0.17,120.24,12.530,99.203
0.18,120.24,12.530,99.203
0.18,120.24,12.530,99.203
0.18,120.24,12.530,99.203
0.18,120.24,12.530,99.203
0.18,120.24,12.530,99.203
0.18,120.24,12.530,99.203
0.19,120.24,12.530,99.203
0.19,120.24,12.530,99.203
0.19,120.24,12.530,99.203
0.19,120.25,12.530,99.203
0.19,120.25,12.530,99.203
0.19,120.25,12.530,99.203
0.19,120.25,12.530,99.202
0.20,120.25,12.530,99.202
0.20,120.25,12.530,99.202
0.20,120.25,12.530,99.202
0.20,120.25,12.530,99.202
0.20,120.25,12.530,99.202
0.21,120.25,12.530,99.202
0.21,120.25,12.529,99.202
0.21,120.25,12.529,99.202
0.21,120.26,12.529,99.202
0.21,120.26,12.530,99.202
0.21,120.26,12.530,99.202
0.21,120.26,12.529,99.202
0.22,120.26,12.529,99.202
0.22,120.26,12.529,99.202
0.22,120.26,12.529,99.202
0.22,120.26,12.529,99.202
0.22,120.26,12.529,99.202
0.23,120.26,12.529,99.202
0.23,120.26,12.529,99.202
0.23,120.26,12.529,99.202
0.23,120.26,12.529,99.202
0.23,120.27,12.529,99.202
0.23,120.27,12.529,99.202
0.24,120.27,12.529,99.202
0.24,120.27,12.529,99.202
0.24,120.27,12.529,99.202
0.24,120.27,12.529,99.202
0.24,120.27,12.529,99.202
0.24,120.27,12.529,99.202
0.24,120.27,12.529,99.202
0.25,120.27,12.529,99.202
0.25,120.27,12.529,99.201
0.25,120.27,12.529,99.201
0.25,120.27,12.529,99.201
0.25,120.28,12.529,99.201
0.26,120.28,12.529,99.201
0.26,120.28,12.529,99.201
0.26,120.28,12.529,99.201
0.26,120.28,12.529,99.201
0.26,120.28,12.529,99.201
0.26,120.28,12.529,99.201
0.26,120.28,12.529,99.201
0.27,120.28,12.529,99.201
0.27,120.28,12.529,99.201
0.27,120.28,12.529,99.201
0.27,120.28,12.529,99.200
0.27,120.28,12.529,99.200
0.28,120.28,12.529,99.200
0.28,120.28,12.529,99.200
0.28,120.29,12.529,99.200
0.28,120.29,12.529,99.200
0.28,120.29,12.529,99.200
0.28,120.29,12.529,99.200
0.29,120.29,12.529,99.200
0.29,120.29,12.529,99.200
0.29,120.29,12.529,99.200
0.29,120.29,12.529,99.200
0.29,120.29,12.529,99.200
0.29,120.29,12.529,99.200
0.30,120.29,12.529,99.200
0.30,120.29,12.529,99.200
0.30,120.29,12.529,99.200
0.30,120.29,12.529,99.200
0.30,120.29,12.529,99.200
0.30,120.30,12.529,99.200
0.30,120.30,12.529,99.200
0.31,120.30,12.529,99.200
0.31,120.30,12.529,99.200
0.31,120.30,12.529,99.200
0.31,120.30,12.529,99.200
0.31,120.30,12.529,99.200
0.31,120.30,12.529,99.200
0.32,120.30,12.529,99.200
0.32,120.30,12.529,99.200
0.32,120.30,12.529,99.200
0.32,120.30,12.529,99.200
0.32,120.30,12.529,99.200
0.33,120.30,12.529,99.199
0.33,120.30,12.529,99.199
0.33,120.30,12.529,99.199
0.33,120.31,12.529,99.199
0.33,120.31,12.529,99.199
0.33,120.31,12.529,99.199
0.34,120.31,12.529,99.199
0.34,120.31,12.529,99.199
0.34,120.31,12.529,99.199
0.34,120.31,12.529,99.199
0.34,120.31,12.529,99.199
0.34,120.31,12.529,99.199
0.35,120.31,12.529,99.199
0.35,120.31,12.529,99.199
0.35,120.31,12.529,99.199
0.35,120.31,12.529,99.199
0.35,120.31,12.529,99.199
0.35,120.31,12.529,99.199
0.35,120.31,12.529,99.199
0.36,120.31,12.529,99.199
0.36,120.31,12.529,99.199
0.36,120.32,12.529,99.199
0.36,120.32,12.529,99.199
0.36,120.32,12.529,99.199
0.36,120.32,12.529,99.199
0.37,120.32,12.529,99.199
0.37,120.32,12.529,99.199
0.37,120.32,12.529,99.199
0.37,120.32,12.529,99.199
0.37,120.32,12.529,99.199
0.38,120.32,12.529,99.199
0.38,120.32,12.529,99.199
0.38,120.32,12.529,99.199
0.38,120.32,12.529,99.199
0.38,120.32,12.529,99.199
0.38,120.32,12.529,99.199
0.39,120.32,12.529,99.199
0.39,120.32,12.529,99.199
0.39,120.32,12.529,99.199
0.39,120.33,12.529,99.199
0.39,120.33,12.529,99.199
0.39,120.33,12.529,99.199
0.40,120.33,12.529,99.199
0.40,120.33,12.529,99.199
0.40,120.33,12.529,99.199
0.40,120.33,12.529,99.199
0.40,120.33,12.529,99.199
0.40,120.33,12.529,99.199
0.40,120.33,12.529,99.199
0.41,120.33,12.529,99.199
0.41,120.33,12.529,99.199
0.41,120.33,12.529,99.199
0.41,120.33,12.529,99.199
0.41,120.33,12.529,99.199
0.41,120.33,12.529,99.199
0.42,120.33,12.529,99.199
0.42,120.33,12.529,99.199
0.42,120.33,12.529,99.199
0.42,120.33,12.529,99.198
0.42,120.34,12.529,99.198
0.43,120.34,12.529,99.199
0.43,120.34,12.529,99.199
0.43,120.34,12.529,99.198
0.43,120.34,12.529,99.198
0.43,120.34,12.529,99.198
0.43,120.34,12.529,99.198
0.44,120.34,12.529,99.198
0.44,120.34,12.529,99.198
0.44,120.34,12.529,99.198
0.44,120.34,12.529,99.198
0.44,120.34,12.529,99.198
0.44,120.34,12.529,99.198
0.45,120.34,12.529,99.198
0.45,120.34,12.529,99.198
0.45,120.34,12.529,99.198
0.45,120.34,12.529,99.198
0.45,120.34,12.529,99.198
0.45,120.34,12.529,99.198
0.45,120.34,12.529,99.198
0.46,120.34,12.529,99.198
0.46,120.34,12.529,99.198
0.46,120.34,12.529,99.198
0.46,120.34,12.529,99.198
0.46,120.34,12.529,99.198
0.46,120.35,12.529,99.198
0.47,120.35,12.529,99.198
0.47,120.35,12.529,99.198
0.47,120.35,12.529,99.198
0.47,120.35,12.529,99.198
0.47,120.35,12.529,99.198
0.48,120.35,12.529,99.198
0.48,120.35,12.529,99.198
0.48,120.35,12.529,99.198
0.48,120.35,12.529,99.198
0.48,120.35,12.529,99.198
0.48,120.35,12.529,99.198
0.49,120.35,12.529,99.198
0.49,120.35,12.529,99.198
0.49,120.35,12.529,99.198
0.49,120.35,12.529,99.198
0.49,120.35,12.529,99.198
0.49,120.35,12.529,99.198
0.50,120.35,12.529,99.198
0.50,120.35,12.529,99.198
0.50,120.35,12.529,99.198
0.50,120.35,12.529,99.197
0.50,120.35,12.529,99.197
0.50,120.35,12.529,99.197
0.50,120.35,12.529,99.197
0.51,120.35,12.529,99.197
0.51,120.35,12.529,99.197
0.51,120.35,12.529,99.197
0.51,120.35,12.529,99.197
0.51,120.35,12.529,99.197
0.51,120.35,12.529,99.197
0.52,120.35,12.529,99.197
0.52,120.36,12.529,99.197
0.52,120.36,12.529,99.197
0.52,120.36,12.529,99.197
0.52,120.36,12.529,99.197
0.53,120.36,12.529,99.197
0.53,120.36,12.529,99.197
0.53,120.36,12.529,99.196
0.53,120.36,12.529,99.196
0.53,120.36,12.529,99.196
0.53,120.36,12.529,99.197
0.53,120.36,12.529,99.196
0.54,120.36,12.529,99.196
0.54,120.36,12.529,99.196
0.54,120.36,12.529,99.196
0.54,120.36,12.529,99.196
0.54,120.36,12.529,99.196
0.55,120.36,12.529,99.196
0.55,120.36,12.529,99.196
0.55,120.36,12.529,99.196
0.55,120.36,12.529,99.196
0.55,120.36,12.529,99.196
0.55,120.36,12.529,99.196
0.55,120.36,12.529,99.196
0.56,120.36,12.529,99.196
0.56,120.36,12.529,99.196
0.56,120.36,12.529,99.196
0.56,120.36,12.529,99.196
0.56,120.36,12.529,99.196
0.57,120.36,12.529,99.196
0.57,120.36,12.529,99.196
0.57,120.36,12.529,99.196
0.57,120.36,12.529,99.196
0.57,120.36,12.529,99.196
0.57,120.36,12.529,99.196
0.58,120.36,12.529,99.195
0.58,120.36,12.529,99.195
0.58,120.36,12.529,99.196
0.58,120.36,12.529,99.196
0.58,120.36,12.529,99.196
0.58,120.37,12.529,99.195
0.58,120.37,12.529,99.195
0.59,120.37,12.529,99.195
0.59,120.37,12.529,99.195
0.59,120.37,12.529,99.195
0.59,120.37,12.529,99.195
0.59,120.37,12.529,99.196
0.60,120.37,12.529,99.195
0.60,120.37,12.529,99.195
0.60,120.37,12.529,99.195
0.60,120.37,12.529,99.195
0.60,120.37,12.529,99.195
0.60,120.37,12.529,99.195
0.60,120.37,12.529,99.195
0.61,120.37,12.529,99.195
0.61,120.37,12.529,99.195
0.61,120.37,12.529,99.195
0.61,120.37,12.529,99.195
0.61,120.37,12.529,99.195
0.62,120.37,12.529,99.195
0.62,120.37,12.529,99.195
0.62,120.37,12.529,99.195
0.62,120.37,12.529,99.195
0.62,120.37,12.529,99.195
0.62,120.37,12.529,99.195
0.63,120.37,12.529,99.195
0.63,120.37,12.529,99.195
0.63,120.37,12.529,99.195
0.63,120.37,12.529,99.195
0.63,120.37,12.529,99.195
0.63,120.37,12.529,99.195
0.63,120.37,12.529,99.195
0.64,120.37,12.529,99.195
0.64,120.37,12.529,99.195
0.64,120.37,12.529,99.195
0.64,120.37,12.529,99.195
0.64,120.37,12.529,99.195
0.65,120.37,12.529,99.195
0.65,120.37,12.529,99.195
0.65,120.37,12.529,99.195
0.65,120.37,12.529,99.195
0.65,120.38,12.529,99.195
0.65,120.38,12.529,99.195
0.65,120.38,12.529,99.195
0.66,120.38,12.529,99.195
0.66,120.38,12.529,99.195
0.66,120.38,12.529,99.195
0.66,120.38,12.529,99.195
0.66,120.38,12.529,99.195
0.67,120.38,12.529,99.195
0.67,120.38,12.529,99.195
0.67,120.38,12.529,99.195
0.67,120.38,12.529,99.194
0.67,120.38,12.529,99.194
0.67,120.38,12.529,99.194
0.68,120.38,12.529,99.194
0.68,120.38,12.529,99.194
0.68,120.38,12.529,99.194
0.68,120.38,12.528,99.194
0.68,120.38,12.528,99.194
0.68,120.38,12.528,99.194
0.68,120.38,12.528,99.194
0.69,120.38,12.528,99.194
0.69,120.38,12.528,99.194
0.69,120.38,12.528,99.194
0.69,120.38,12.528,99.194
0.69,120.38,12.528,99.194
0.70,120.38,12.528,99.194
0.70,120.38,12.528,99.194
0.70,120.38,12.528,99.194
0.70,120.38,12.528,99.194
0.70,120.38,12.528,99.194
0.70,120.38,12.528,99.194
0.70,120.38,12.528,99.194
0.71,120.38,12.528,99.194
0.71,120.38,12.528,99.194
0.71,120.38,12.528,99.194
0.71,120.38,12.528,99.194
0.71,120.38,12.528,99.194
0.72,120.38,12.528,99.194
0.72,120.38,12.528,99.194
0.72,120.38,12.528,99.194
0.72,120.38,12.528,99.194
0.72,120.38,12.528,99.194
0.72,120.38,12.529,99.194
0.73,120.38,12.529,99.194
0.73,120.38,12.529,99.194
0.73,120.38,12.529,99.194
0.73,120.38,12.529,99.194
0.73,120.38,12.529,99.194
0.73,120.38,12.528,99.194
0.73,120.38,12.528,99.194
0.74,120.38,12.528,99.194
0.74,120.39,12.528,99.194
0.74,120.39,12.528,99.194
0.74,120.39,12.528,99.194
0.74,120.39,12.528,99.194
0.75,120.39,12.528,99.194
0.75,120.39,12.528,99.194
0.75,120.39,12.528,99.193
0.75,120.39,12.528,99.193
0.75,120.39,12.528,99.193
0.75,120.39,12.528,99.193
0.75,120.39,12.528,99.193
0.76,120.39,12.528,99.193
0.76,120.39,12.528,99.193
0.76,120.39,12.528,99.193
0.76,120.39,12.528,99.193
0.76,120.39,12.528,99.193
0.77,120.39,12.528,99.193
0.77,120.39,12.528,99.193
0.77,120.39,12.528,99.193
0.77,120.39,12.528,99.193
0.77,120.39,12.528,99.193
0.77,120.39,12.528,99.193
0.78,120.39,12.528,99.193
0.78,120.39,12.528,99.193
0.78,120.39,12.528,99.193
0.78,120.39,12.528,99.193
0.78,120.39,12.528,99.194
0.78,120.39,12.528,99.194
0.78,120.39,12.528,99.193
0.79,120.39,12.528,99.193
0.79,120.39,12.528,99.193
0.79,120.39,12.528,99.193
0.79,120.39,12.528,99.193
0.79,120.39,12.528,99.193
0.80,120.39,12.528,99.193
0.80,120.39,12.528,99.193
0.80,120.39,12.528,99.193
0.80,120.39,12.528,99.193
0.80,120.39,12.528,99.193
0.80,120.39,12.528,99.193
0.80,120.39,12.528,99.193
0.81,120.39,12.528,99.193
0.81,120.39,12.528,99.193
0.81,120.39,12.528,99.193
0.81,120.39,12.528,99.193
0.81,120.39,12.528,99.193
0.82,120.39,12.528,99.193
0.82,120.39,12.528,99.193
0.82,120.39,12.528,99.193
0.82,120.39,12.528,99.193
0.82,120.39,12.528,99.193
0.82,120.39,12.528,99.193
0.83,120.39,12.528,99.193
0.83,120.39,12.528,99.193
0.83,120.39,12.528,99.193
0.83,120.39,12.528,99.193
0.83,120.39,12.528,99.193
0.83,120.39,12.528,99.193
0.83,120.39,12.528,99.193
0.84,120.39,12.528,99.193
0.84,120.39,12.528,99.193
0.84,120.39,12.528,99.193
0.84,120.39,12.528,99.193
0.84,120.39,12.528,99.193
0.85,120.39,12.528,99.193
0.85,120.39,12.528,99.193
0.85,120.39,12.528,99.193
0.85,120.39,12.528,99.193
0.85,120.39,12.528,99.193
0.85,120.39,12.528,99.193
0.85,120.39,12.528,99.193
0.86,120.39,12.528,99.193
0.86,120.39,12.528,99.193
0.86,120.39,12.528,99.193
0.86,120.39,12.528,99.193
0.86,120.39,12.528,99.193
0.87,120.39,12.528,99.193
0.87,120.39,12.528,99.193
0.87,120.39,12.528,99.193
0.87,120.39,12.528,99.193
0.87,120.39,12.528,99.193
0.87,120.39,12.528,99.193
0.88,120.39,12.528,99.193
0.88,120.39,12.528,99.193
0.88,120.39,12.528,99.193
0.88,120.39,12.528,99.193
0.88,120.39,12.528,99.193
0.88,120.39,12.528,99.193
0.88,120.39,12.528,99.193
0.89,120.39,12.528,99.193
0.89,120.39,12.528,99.193
0.89,120.39,12.528,99.193
0.89,120.39,12.528,99.193
0.89,120.39,12.528,99.193
0.90,120.39,12.528,99.193
0.90,120.39,12.528,99.193
0.90,120.39,12.528,99.193
0.90,120.39,12.528,99.193
0.90,120.39,12.528,99.192
0.90,120.39,12.528,99.192
0.90,120.39,12.528,99.192
0.91,120.39,12.528,99.192
0.91,120.39,12.528,99.192
0.91,120.39,12.528,99.192
0.91,120.39,12.528,99.192
0.91,120.39,12.528,99.192
0.92,120.39,12.528,99.192
0.92,120.39,12.528,99.192
0.92,120.39,12.528,99.192
0.92,120.39,12.528,99.192
0.92,120.39,12.528,99.192
0.92,120.39,12.528,99.192
0.93,120.39,12.528,99.192
0.93,120.39,12.528,99.192
0.93,120.39,12.528,99.192
0.93,120.39,12.528,99.192
0.93,120.39,12.528,99.192
0.93,120.39,12.528,99.192
0.93,120.39,12.528,99.192
0.94,120.39,12.528,99.192
0.94,120.39,12.528,99.192
0.94,120.39,12.528,99.192
0.94,120.39,12.528,99.192
0.94,120.39,12.528,99.192
0.95,120.39,12.528,99.192
0.95,120.39,12.528,99.192
0.95,120.39,12.528,99.192
0.95,120.39,12.528,99.192
0.95,120.39,12.528,99.192
0.95,120.39,12.528,99.192
0.95,120.39,12.528,99.192
0.96,120.39,12.528,99.192
0.96,120.39,12.528,99.192
0.96,120.39,12.528,99.192
0.96,120.39,12.528,99.192
0.96,120.39,12.528,99.192
0.97,120.39,12.528,99.192
0.97,120.39,12.528,99.192
0.97,120.39,12.528,99.192
0.97,120.39,12.528,99.192
0.97,120.39,12.528,99.192
0.97,120.39,12.528,99.192
0.98,120.39,12.528,99.192
0.98,120.39,12.528,99.192
0.98,120.39,12.528,99.192
0.98,120.39,12.528,99.192
0.98,120.39,12.528,99.192
0.98,120.39,12.528,99.192
0.98,120.39,12.528,99.192
0.99,120.39,12.528,99.192
0.99,120.39,12.528,99.192
0.99,120.39,12.528,99.192
0.99,120.39,12.528,99.192
0.99,120.39,12.528,99.192
1.00,120.39,12.528,99.192
1.00,120.39,12.528,99.192
1.00,120.39,12.528,99.192

[step]
Equilibrate 120.00 °C
Time,Temperature,Weight,Weight
min,°C,mg,%
1.00,120.39,12.528,99.192
1.00,120.39,12.531,99.213
1.00,120.39,12.576,99.569
1.00,120.39,12.610,99.839
1.01,120.39,12.642,100.095
1.01,120.39,12.671,100.319
1.01,120.39,12.695,100.510
1.01,120.39,12.715,100.671
1.01,120.39,12.731,100.797
1.02,120.39,12.743,100.891
1.02,120.39,12.751,100.955
1.02,120.39,12.756,100.998
1.02,120.39,12.761,101.034
1.02,120.39,12.764,101.058
1.02,120.39,12.765,101.064
1.03,120.39,12.766,101.077
1.03,120.39,12.769,101.101
1.03,120.39,12.771,101.112
1.03,120.39,12.769,101.099
1.03,120.39,12.767,101.084
1.03,120.39,12.767,101.082
1.03,120.39,12.768,101.090
1.04,120.39,12.769,101.100
1.04,120.39,12.770,101.107
1.04,120.39,12.769,101.098
1.04,120.39,12.767,101.082
1.04,120.39,12.766,101.073
1.05,120.39,12.766,101.074
1.05,120.39,12.766,101.078
1.05,120.39,12.767,101.079
1.05,120.39,12.766,101.077
1.05,120.39,12.766,101.077
1.05,120.39,12.766,101.076
1.05,120.39,12.765,101.070
1.06,120.39,12.766,101.072
1.06,120.39,12.765,101.070
1.06,120.39,12.765,101.069
1.06,120.39,12.767,101.085
1.06,120.39,12.769,101.098
1.07,120.39,12.768,101.091
1.07,120.39,12.767,101.081
1.07,120.39,12.766,101.072
1.07,120.39,12.765,101.067
1.07,120.39,12.765,101.065
1.07,120.39,12.765,101.067
1.08,120.39,12.766,101.076
1.08,120.39,12.767,101.082
1.08,120.39,12.767,101.079
1.08,120.39,12.766,101.076
1.08,120.39,12.767,101.079
1.08,120.39,12.767,101.083
1.08,120.39,12.767,101.084
1.09,120.39,12.767,101.086
1.09,120.39,12.768,101.088
1.09,120.39,12.768,101.087
1.09,120.39,12.765,101.067
1.09,120.39,12.765,101.069
1.09,120.39,12.765,101.070
1.10,120.39,12.766,101.071
1.10,120.39,12.766,101.071
1.10,120.39,12.766,101.072
1.10,120.39,12.766,101.072
1.10,120.39,12.765,101.066
1.11,120.39,12.765,101.063
1.11,120.39,12.765,101.063
1.11,120.39,12.765,101.063
1.11,120.39,12.765,101.065
1.11,120.39,12.765,101.066
1.11,120.39,12.765,101.064
1.12,120.39,12.764,101.061
1.12,120.39,12.764,101.061
1.12,120.39,12.765,101.064
1.12,120.39,12.765,101.064
1.12,120.39,12.765,101.064
1.12,120.39,12.765,101.064
1.13,120.39,12.765,101.064
1.13,120.39,12.765,101.064
1.13,120.39,12.764,101.062
1.13,120.39,12.764,101.061
1.13,120.39,12.764,101.061
1.13,120.39,12.764,101.061
1.13,120.39,12.764,101.062
1.14,120.39,12.764,101.062
1.14,120.39,12.764,101.062
1.14,120.39,12.764,101.062
1.14,120.39,12.764,101.062
1.14,120.39,12.764,101.062
1.14,120.39,12.764,101.062
1.15,120.39,12.764,101.062
1.15,120.39,12.764,101.061
1.15,120.39,12.764,101.061
1.15,120.39,12.764,101.060
1.15,120.39,12.764,101.059
1.16,120.39,12.764,101.059
1.16,120.39,12.764,101.059
1.16,120.38,12.764,101.059
1.16,120.38,12.764,101.059
1.16,120.38,12.764,101.059
1.16,120.38,12.764,101.058
1.17,120.38,12.764,101.058
1.17,120.38,12.764,101.058
1.17,120.38,12.764,101.057
1.17,120.38,12.764,101.057
1.17,120.38,12.764,101.057
1.17,120.38,12.764,101.057
1.18,120.38,12.764,101.057
1.18,120.38,12.764,101.057
1.18,120.38,12.764,101.057
1.18,120.38,12.764,101.057
1.18,120.38,12.764,101.057
1.18,120.38,12.764,101.057
1.18,120.38,12.764,101.057
1.19,120.38,12.764,101.057
1.19,120.38,12.764,101.057
1.19,120.38,12.764,101.056
1.19,120.38,12.764,101.056
1.19,120.38,12.764,101.057
1.19,120.38,12.764,101.057
1.20,120.38,12.764,101.056
1.20,120.38,12.764,101.056
1.20,120.38,12.764,101.056
1.20,120.38,12.764,101.056
1.20,120.38,12.764,101.056
1.21,120.38,12.764,101.055
1.21,120.38,12.764,101.055
1.21,120.38,12.764,101.055
1.21,120.38,12.764,101.055
1.21,120.38,12.764,101.055
1.21,120.38,12.764,101.055
1.22,120.38,12.764,101.055
1.22,120.38,12.764,101.055
1.22,120.38,12.764,101.055
1.22,120.38,12.764,101.055
1.22,120.38,12.764,101.055
1.22,120.38,12.764,101.055
1.23,120.38,12.764,101.055
1.23,120.38,12.763,101.055
1.23,120.38,12.763,101.055
1.23,120.38,12.763,101.054
1.23,120.38,12.763,101.054
1.23,120.38,12.763,101.054
1.23,120.38,12.763,101.054
1.24,120.38,12.763,101.053
1.24,120.38,12.763,101.053
1.24,120.38,12.763,101.053
1.24,120.38,12.763,101.053
1.24,120.38,12.763,101.053
1.24,120.38,12.763,101.053
1.25,120.38,12.763,101.053
1.25,120.38,12.763,101.053
1.25,120.38,12.763,101.053
1.25,120.38,12.763,101.053
1.25,120.38,12.763,101.053
1.26,120.38,12.763,101.052
1.26,120.38,12.763,101.052
1.26,120.38,12.763,101.052
1.26,120.38,12.763,101.052
1.26,120.38,12.763,101.052
1.26,120.38,12.763,101.052
1.27,120.38,12.763,101.052
1.27,120.38,12.763,101.052
1.27,120.38,12.763,101.051
1.27,120.38,12.763,101.051
1.27,120.38,12.763,101.051
1.27,120.38,12.763,101.051
1.28,120.38,12.763,101.051
1.28,120.38,12.763,101.051
1.28,120.38,12.763,101.051
1.28,120.38,12.763,101.051
1.28,120.38,12.763,101.050
1.28,120.38,12.763,101.050
1.28,120.38,12.763,101.050
1.29,120.38,12.763,101.050
1.29,120.38,12.763,101.050
1.29,120.38,12.763,101.050
1.29,120.37,12.763,101.050
1.29,120.37,12.763,101.049
1.29,120.37,12.763,101.049
1.30,120.37,12.763,101.049
1.30,120.37,12.763,101.049
1.30,120.37,12.763,101.049
1.30,120.37,12.763,101.049
1.30,120.37,12.763,101.049
1.31,120.37,12.763,101.049
1.31,120.37,12.763,101.049
1.31,120.37,12.763,101.049
1.31,120.37,12.763,101.048
1.31,120.37,12.763,101.048
1.31,120.37,12.763,101.048
1.32,120.37,12.763,101.048
1.32,120.37,12.763,101.048
1.32,120.37,12.763,101.048
1.32,120.37,12.763,101.048
1.32,120.37,12.763,101.048
1.32,120.37,12.763,101.047
1.33,120.37,12.763,101.047
1.33,120.37,12.763,101.047
1.33,120.37,12.762,101.047
1.33,120.37,12.762,101.046
1.33,120.37,12.762,101.046
1.33,120.37,12.762,101.046
1.33,120.37,12.762,101.046
1.34,120.37,12.762,101.046
1.34,120.37,12.762,101.045
1.34,120.37,12.762,101.045
1.34,120.37,12.762,101.045
1.34,120.37,12.762,101.045
1.34,120.37,12.762,101.045
1.35,120.37,12.762,101.045
1.35,120.37,12.762,101.045
1.35,120.37,12.762,101.044
1.35,120.37,12.762,101.044
1.35,120.37,12.762,101.044
1.36,120.37,12.762,101.044
1.36,120.37,12.762,101.044
1.36,120.37,12.762,101.043
1.36,120.37,12.762,101.043
1.36,120.37,12.762,101.043
1.36,120.37,12.762,101.043
1.37,120.37,12.762,101.042
1.37,120.37,12.762,101.042
1.37,120.37,12.762,101.042
1.37,120.37,12.762,101.042
1.37,120.37,12.762,101.042
1.37,120.37,12.762,101.042
1.38,120.37,12.762,101.041
1.38,120.37,12.762,101.041
1.38,120.37,12.762,101.041
1.38,120.37,12.762,101.041
1.38,120.37,12.762,101.040
1.38,120.37,12.762,101.040
1.38,120.37,12.762,101.040
1.39,120.37,12.762,101.040
1.39,120.37,12.762,101.040
1.39,120.37,12.762,101.039
1.39,120.37,12.762,101.039
1.39,120.36,12.762,101.039
1.39,120.36,12.761,101.039
1.40,120.36,12.761,101.039
1.40,120.36,12.761,101.038
1.40,120.36,12.761,101.038
1.40,120.36,12.761,101.038
1.40,120.36,12.761,101.038
1.41,120.36,12.761,101.038
1.41,120.36,12.761,101.038
1.41,120.36,12.761,101.037
1.41,120.36,12.761,101.037
1.41,120.36,12.761,101.037
1.41,120.36,12.761,101.037
1.42,120.36,12.761,101.036
1.42,120.36,12.761,101.036
1.42,120.36,12.761,101.036
1.42,120.36,12.761,101.036
1.42,120.36,12.761,101.036
1.42,120.36,12.761,101.035
1.43,120.36,12.761,101.035
1.43,120.36,12.761,101.035
1.43,120.36,12.761,101.035
1.43,120.36,12.761,101.034
1.43,120.36,12.761,101.034
1.43,120.36,12.761,101.034
1.43,120.36,12.761,101.034
1.44,120.36,12.761,101.033
1.44,120.36,12.761,101.033
1.44,120.36,12.761,101.033
1.44,120.36,12.761,101.033
1.44,120.36,12.761,101.032
1.44,120.36,12.761,101.032
1.45,120.36,12.761,101.032
1.45,120.36,12.761,101.032
1.45,120.36,12.761,101.031
1.45,120.36,12.761,101.031
1.45,120.36,12.761,101.031
1.46,120.36,12.760,101.031
1.46,120.36,12.760,101.031
1.46,120.36,12.760,101.030
1.46,120.36,12.760,101.030
1.46,120.36,12.760,101.030
1.46,120.36,12.760,101.030
1.47,120.36,12.760,101.029
1.47,120.36,12.760,101.029
1.47,120.36,12.760,101.029
1.47,120.35,12.760,101.029
1.47,120.35,12.760,101.028
1.47,120.35,12.760,101.028
1.48,120.35,12.760,101.028
1.48,120.35,12.760,101.027
1.48,120.35,12.760,101.027
1.48,120.35,12.760,101.027
1.48,120.35,12.760,101.027
1.48,120.35,12.760,101.026
1.48,120.35,12.760,101.026
1.49,120.35,12.760,101.026
1.49,120.35,12.760,101.026
1.49,120.35,12.760,101.025
1.49,120.35,12.760,101.025
1.49,120.35,12.760,101.025
1.49,120.35,12.760,101.025
1.50,120.35,12.760,101.025
1.50,120.35,12.760,101.024
1.50,120.35,12.760,101.024
1.50,120.35,12.760,101.024
1.50,120.35,12.760,101.024
1.51,120.35,12.760,101.023
1.51,120.35,12.760,101.023
1.51,120.35,12.759,101.023
1.51,120.35,12.759,101.023
1.51,120.35,12.759,101.022
1.51,120.35,12.759,101.022
1.52,120.35,12.759,101.022
1.52,120.35,12.759,101.022
1.52,120.35,12.759,101.021
1.52,120.35,12.759,101.021
1.52,120.35,12.759,101.021
1.52,120.35,12.759,101.021
1.53,120.35,12.759,101.020
1.53,120.35,12.759,101.020
1.53,120.35,12.759,101.020

[step]
Ramp 20.00 °C/min to 325.00 °C
Time,Temperature,Weight,Weight
min,°C,mg,%
1.53,120.35,12.759,101.019
1.54,120.35,12.759,101.018
1.55,120.34,12.759,101.017
1.56,120.34,12.759,101.016
1.56,120.34,12.758,101.014
1.57,120.34,12.758,101.013
1.58,120.34,12.758,101.012
1.59,120.35,12.758,101.010
1.60,120.35,12.758,101.009
1.61,120.35,12.758,101.008
1.61,120.36,12.757,101.006
1.62,120.37,12.757,101.005
1.63,120.38,12.757,101.004
1.64,120.40,12.757,101.002
1.65,120.41,12.757,101.001
1.66,120.44,12.757,101.000
1.66,120.46,12.756,100.999
1.67,120.49,12.756,100.998
1.68,120.52,12.756,100.996
1.69,120.56,12.756,100.995
1.70,120.60,12.756,100.994
1.71,120.65,12.756,100.993
1.71,120.70,12.755,100.991
1.72,120.75,12.755,100.990
1.73,120.81,12.755,100.989
1.74,120.87,12.755,100.987
1.75,120.93,12.755,100.986
1.76,121.00,12.755,100.984
1.76,121.07,12.754,100.983
1.77,121.15,12.754,100.982
1.78,121.23,12.754,100.981
1.79,121.32,12.754,100.980
1.80,121.40,12.754,100.978
1.81,121.50,12.754,100.977
1.81,121.59,12.754,100.976
1.82,121.69,12.753,100.975
1.83,121.79,12.753,100.973
1.84,121.90,12.753,100.972
1.85,122.01,12.753,100.971
1.86,122.13,12.753,100.970
1.86,122.24,12.753,100.968
1.87,122.36,12.752,100.967
1.88,122.49,12.752,100.966
1.89,122.61,12.752,100.964
1.90,122.74,12.752,100.963
1.91,122.88,12.752,100.961
1.91,123.01,12.751,100.959
1.92,123.15,12.751,100.958
1.93,123.29,12.751,100.957
1.94,123.43,12.751,100.956
1.95,123.58,12.751,100.954
1.96,123.72,12.751,100.953
1.96,123.87,12.750,100.951
1.97,124.01,12.750,100.950
1.98,124.16,12.750,100.949
1.99,124.31,12.750,100.947
2.00,124.46,12.750,100.946
2.01,124.61,12.750,100.945
2.01,124.77,12.749,100.944
2.02,124.92,12.749,100.942
2.03,125.07,12.749,100.940
2.04,125.22,12.749,100.939
2.05,125.37,12.749,100.938
2.06,125.53,12.749,100.936
2.06,125.68,12.748,100.935
2.07,125.83,12.748,100.933
2.08,125.99,12.748,100.932
2.09,126.14,12.748,100.931
2.10,126.30,12.748,100.930
2.11,126.45,12.748,100.928
2.11,126.61,12.747,100.927
2.12,126.76,12.747,100.926
2.13,126.92,12.747,100.925
2.14,127.08,12.747,100.923
2.15,127.24,12.747,100.922
2.16,127.40,12.747,100.921
2.16,127.55,12.746,100.919
2.17,127.71,12.746,100.918
2.18,127.88,12.746,100.917
2.19,128.04,12.746,100.915
2.20,128.20,12.746,100.914
2.21,128.36,12.746,100.913
2.21,128.52,12.745,100.911
2.22,128.69,12.745,100.910
2.23,128.85,12.745,100.908
2.24,129.01,12.745,100.907
2.25,129.18,12.745,100.906
2.26,129.34,12.745,100.905
2.26,129.51,12.744,100.903
2.27,129.67,12.744,100.902
2.28,129.84,12.744,100.901
2.29,130.00,12.744,100.899
2.30,130.16,12.744,100.898
2.31,130.33,12.744,100.897
2.31,130.49,12.743,100.896
2.32,130.66,12.743,100.894
2.33,130.82,12.743,100.893
2.34,130.99,12.743,100.892
2.35,131.15,12.743,100.891
2.36,131.32,12.743,100.889
2.36,131.48,12.742,100.888
2.37,131.64,12.742,100.887
2.38,131.81,12.742,100.886
2.39,131.97,12.742,100.885
2.40,132.14,12.742,100.883
2.41,132.30,12.742,100.882
2.41,132.47,12.742,100.881
2.42,132.63,12.741,100.880
2.43,132.80,12.741,100.879
2.44,132.96,12.741,100.877
2.45,133.13,12.741,100.876
2.46,133.29,12.741,100.874
2.46,133.46,12.741,100.873
2.47,133.62,12.740,100.872
2.48,133.79,12.740,100.871
2.49,133.95,12.740,100.870
2.50,134.12,12.740,100.868
2.51,134.29,12.740,100.867
2.51,134.45,12.740,100.866
2.52,134.62,12.740,100.865
2.53,134.79,12.739,100.864
2.54,134.95,12.739,100.863
2.55,135.12,12.739,100.862
2.56,135.29,12.739,100.861
2.56,135.45,12.739,100.859
2.57,135.62,12.739,100.858
2.58,135.79,12.739,100.857
2.59,135.95,12.738,100.856
2.60,136.12,12.738,100.854
2.61,136.29,12.738,100.853
2.61,136.45,12.738,100.852
2.62,136.62,12.738,100.851
2.63,136.79,12.738,100.850
2.64,136.95,12.737,100.849
2.65,137.12,12.737,100.848
2.66,137.28,12.737,100.846
2.66,137.45,12.737,100.845
2.67,137.62,12.737,100.844
2.68,137.78,12.737,100.843
2.69,137.95,12.737,100.842
2.70,138.12,12.736,100.841
2.71,138.28,12.736,100.840
2.71,138.45,12.736,100.839
2.72,138.61,12.736,100.837
2.73,138.78,12.736,100.836
2.74,138.95,12.736,100.835
2.75,139.11,12.736,100.834
2.76,139.28,12.735,100.833
2.76,139.45,12.735,100.831
2.77,139.61,12.735,100.830
2.78,139.78,12.735,100.829
2.79,139.95,12.735,100.828
2.80,140.11,12.735,100.827
2.81,140.28,12.735,100.826
2.81,140.45,12.734,100.825
2.82,140.61,12.734,100.823
2.83,140.78,12.734,100.822
2.84,140.95,12.734,100.822
2.85,141.12,12.734,100.821
2.86,141.28,12.734,100.820
2.86,141.45,12.734,100.818
2.87,141.62,12.734,100.817
2.88,141.78,12.733,100.816
2.89,141.95,12.733,100.815
2.90,142.12,12.733,100.814
2.91,142.28,12.733,100.813
2.91,142.45,12.733,100.812
2.92,142.62,12.733,100.811
2.93,142.78,12.733,100.810
2.94,142.95,12.732,100.809
2.95,143.12,12.732,100.808
2.96,143.28,12.732,100.807
2.96,143.45,12.732,100.805
2.97,143.62,12.732,100.804
2.98,143.78,12.732,100.804
2.99,143.95,12.732,100.803
3.00,144.12,12.732,100.802
3.01,144.28,12.731,100.801
3.01,144.45,12.731,100.799
3.02,144.62,12.731,100.799
3.03,144.78,12.731,100.798
3.04,144.95,12.731,100.797
3.05,145.12,12.731,100.795
3.06,145.28,12.731,100.794
3.06,145.45,12.730,100.793
3.07,145.62,12.730,100.792
3.08,145.78,12.730,100.791
3.09,145.95,12.730,100.790
3.10,146.12,12.730,100.789
3.11,146.28,12.730,100.788
3.11,146.45,12.730,100.787
3.12,146.62,12.730,100.786
3.13,146.78,12.729,100.785
3.14,146.95,12.729,100.784
3.15,147.12,12.729,100.783
3.16,147.28,12.729,100.782
3.16,147.45,12.729,100.782
3.17,147.62,12.729,100.780
3.18,147.78,12.729,100.779
3.19,147.95,12.729,100.779
3.20,148.12,12.729,100.778
3.21,148.28,12.728,100.777
3.21,148.45,12.728,100.776
3.22,148.62,12.728,100.775
3.23,148.78,12.728,100.774
3.24,148.95,12.728,100.773
3.25,149.12,12.728,100.772
3.26,149.28,12.728,100.771
3.26,149.45,12.728,100.770
3.27,149.62,12.727,100.770
3.28,149.78,12.727,100.769
3.29,149.95,12.727,100.768
3.30,150.12,12.727,100.767
3.31,150.29,12.727,100.766
3.31,150.45,12.727,100.765
3.32,150.62,12.727,100.764
3.33,150.79,12.727,100.763
3.34,150.95,12.727,100.762
3.35,151.12,12.726,100.761
3.36,151.29,12.726,100.760
3.36,151.45,12.726,100.759
3.37,151.62,12.726,100.758
3.38,151.79,12.726,100.757
3.39,151.95,12.726,100.756
3.40,152.12,12.726,100.755
3.41,152.29,12.725,100.754
3.41,152.45,12.725,100.753
3.42,152.62,12.725,100.752
3.43,152.79,12.725,100.752
3.44,152.95,12.725,100.750
3.45,153.12,12.725,100.750
3.46,153.29,12.725,100.749
3.46,153.45,12.725,100.748
3.47,153.62,12.725,100.747
3.48,153.79,12.725,100.746
3.49,153.95,12.724,100.746
3.50,154.12,12.724,100.745
3.51,154.29,12.724,100.744
3.51,154.45,12.724,100.743
3.52,154.62,12.724,100.742
3.53,154.79,12.724,100.741
3.54,154.95,12.724,100.740
3.55,155.12,12.724,100.739
3.56,155.29,12.724,100.738
3.56,155.45,12.723,100.738
3.57,155.62,12.723,100.737
3.58,155.79,12.723,100.736
3.59,155.95,12.723,100.735
3.60,156.12,12.723,100.734
3.61,156.29,12.723,100.733
3.61,156.45,12.723,100.733
3.62,156.62,12.723,100.732
3.63,156.79,12.723,100.731
3.64,156.95,12.723,100.730
3.65,157.12,12.722,100.729
3.66,157.29,12.722,100.729
3.66,157.45,12.722,100.728
3.67,157.62,12.722,100.727
3.68,157.79,12.722,100.726
3.69,157.95,12.722,100.725
3.70,158.12,12.722,100.724
3.71,158.29,12.722,100.723
3.71,158.45,12.722,100.722
3.72,158.62,12.721,100.722
3.73,158.79,12.721,100.721
3.74,158.95,12.721,100.720
3.75,159.12,12.721,100.719
3.76,159.29,12.721,100.719
3.76,159.45,12.721,100.718
3.77,159.62,12.721,100.717
3.78,159.79,12.721,100.716
3.79,159.95,12.721,100.716
3.80,160.12,12.721,100.715
3.81,160.29,12.720,100.714
3.81,160.45,12.720,100.713
3.82,160.62,12.720,100.712
3.83,160.79,12.720,100.712
3.84,160.95,12.720,100.711
3.85,161.12,12.720,100.710
3.86,161.29,12.720,100.709
3.86,161.45,12.720,100.708
3.87,161.62,12.720,100.707
3.88,161.79,12.719,100.706
3.89,161.95,12.719,100.705
3.90,162.12,12.719,100.705
3.91,162.29,12.719,100.704
3.91,162.45,12.719,100.703
3.92,162.62,12.719,100.703
3.93,162.79,12.719,100.702
3.94,162.95,12.719,100.702
3.95,163.12,12.719,100.701
3.96,163.29,12.719,100.700
3.96,163.45,12.719,100.699
3.97,163.62,12.718,100.698
3.98,163.79,12.718,100.697
3.99,163.95,12.718,100.696
4.00,164.12,12.718,100.696
4.01,164.29,12.718,100.695
4.01,164.45,12.718,100.694
4.02,164.62,12.718,100.694
4.03,164.79,12.718,100.693
4.04,164.95,12.718,100.693
4.05,165.12,12.718,100.692
4.06,165.28,12.718,100.691
4.06,165.45,12.717,100.690
4.07,165.62,12.717,100.689
4.08,165.78,12.717,100.689
4.09,165.95,12.717,100.688
4.10,166.12,12.717,100.687
4.11,166.29,12.717,100.686
4.11,166.45,12.717,100.686
4.12,166.62,12.717,100.685
4.13,166.79,12.717,100.684
4.14,166.95,12.717,100.683
4.15,167.12,12.717,100.683
4.16,167.29,12.716,100.682
4.16,167.45,12.716,100.681
4.17,167.62,12.716,100.681
4.18,167.79,12.716,100.680
4.19,167.95,12.716,100.679
4.20,168.12,12.716,100.678
4.21,168.29,12.716,100.678
4.21,168.45,12.716,100.677
4.22,168.62,12.716,100.677
4.23,168.79,12.716,100.676
4.24,168.95,12.716,100.675
4.25,169.12,12.715,100.674
4.26,169.29,12.715,100.673
4.26,169.45,12.715,100.673
4.27,169.62,12.715,100.672
4.28,169.78,12.715,100.671
4.29,169.95,12.715,100.671
4.30,170.12,12.715,100.670
4.30,170.28,12.715,100.669
4.31,170.45,12.715,100.669
4.32,170.62,12.715,100.668
4.33,170.78,12.715,100.667
4.34,170.95,12.714,100.667
4.35,171.12,12.714,100.666
4.35,171.28,12.714,100.665
4.36,171.45,12.714,100.664
4.37,171.62,12.714,100.664
4.38,171.78,12.714,100.663
4.39,171.95,12.714,100.662
4.40,172.12,12.714,100.661
4.40,172.28,12.714,100.661
4.41,172.45,12.714,100.660
4.42,172.62,12.714,100.660
4.43,172.78,12.714,100.659
4.44,172.95,12.713,100.658
4.45,173.12,12.713,100.657
4.45,173.28,12.713,100.657
4.46,173.45,12.713,100.656
4.47,173.62,12.713,100.655
4.48,173.78,12.713,100.655
4.49,173.95,12.713,100.654
4.50,174.11,12.713,100.653
4.50,174.28,12.713,100.653
4.51,174.45,12.713,100.652
4.52,174.61,12.713,100.652
4.53,174.78,12.713,100.651
4.54,174.95,12.712,100.650
4.55,175.11,12.712,100.650
4.55,175.28,12.712,100.649
4.56,175.45,12.712,100.649
4.57,175.61,12.712,100.648
4.58,175.78,12.712,100.647
4.59,175.95,12.712,100.647
4.60,176.11,12.712,100.646
4.60,176.28,12.712,100.645
4.61,176.45,12.712,100.644
4.62,176.61,12.712,100.644
4.63,176.78,12.712,100.643
4.64,176.95,12.711,100.643
4.65,177.11,12.711,100.642
4.65,177.28,12.711,100.642
4.66,177.45,12.711,100.641
4.67,177.61,12.711,100.640
4.68,177.78,12.711,100.640
4.69,177.95,12.711,100.639
4.70,178.11,12.711,100.639
4.70,178.28,12.711,100.638
4.71,178.45,12.711,100.638
4.72,178.61,12.711,100.637
4.73,178.78,12.711,100.636
4.74,178.95,12.711,100.636
4.75,179.11,12.711,100.635
4.75,179.28,12.710,100.635
4.76,179.45,12.710,100.635
4.77,179.61,12.710,100.635
4.78,179.78,12.710,100.634
4.79,179.95,12.710,100.634
4.80,180.11,12.710,100.634
4.80,180.28,12.710,100.634
4.81,180.45,12.710,100.633
4.82,180.61,12.710,100.633
4.83,180.78,12.710,100.632
4.84,180.95,12.710,100.631
4.85,181.11,12.710,100.630
4.85,181.28,12.710,100.630
4.86,181.45,12.710,100.629
4.87,181.61,12.710,100.628
4.88,181.78,12.710,100.628
4.89,181.94,12.709,100.627
4.90,182.11,12.709,100.626
4.90,182.28,12.709,100.626
4.91,182.44,12.709,100.625
4.92,182.61,12.709,100.624
4.93,182.78,12.709,100.624
4.94,182.94,12.709,100.624
4.95,183.11,12.709,100.623
4.95,183.28,12.709,100.622
4.96,183.44,12.709,100.622
4.97,183.61,12.709,100.621
4.98,183.78,12.709,100.620
4.99,183.94,12.709,100.620
5.00,184.11,12.709,100.620
5.00,184.28,12.708,100.619
5.01,184.44,12.708,100.618
5.02,184.61,12.708,100.618
5.03,184.78,12.708,100.617
5.04,184.94,12.708,100.616
5.05,185.11,12.708,100.615
5.05,185.28,12.708,100.615
5.06,185.44,12.708,100.614
5.07,185.61,12.708,100.614
5.08,185.78,12.708,100.613
5.09,185.94,12.708,100.613
5.10,186.11,12.708,100.612
5.10,186.28,12.707,100.611
5.11,186.44,12.707,100.610
5.12,186.61,12.707,100.610
5.13,186.78,12.707,100.609
5.14,186.94,12.707,100.609
5.15,187.11,12.707,100.609
5.15,187.27,12.707,100.608
5.16,187.44,12.707,100.607
5.17,187.61,12.707,100.607
5.18,187.77,12.707,100.606
5.19,187.94,12.707,100.606
5.20,188.11,12.707,100.605
5.20,188.27,12.707,100.605
5.21,188.44,12.707,100.604
5.22,188.61,12.707,100.604
5.23,188.77,12.707,100.604
5.24,188.94,12.706,100.603
5.25,189.11,12.706,100.602
5.25,189.27,12.706,100.602
5.26,189.44,12.706,100.601
5.27,189.61,12.706,100.601
5.28,189.77,12.706,100.601
5.29,189.94,12.706,100.600
[...]
14.75,263.14,12.670,100.315,1.79702e-3
14.75,263.05,12.670,100.315,2.36438e-4
14.76,262.95,12.670,100.315,1.91488e-3
14.76,262.85,12.670,100.315,-5.91005e-4
14.77,262.76,12.670,100.315,-1.60714e-3
14.77,262.66,12.670,100.315,1.18080e-4
14.78,262.56,12.670,100.315,2.26777e-3
14.78,262.47,12.670,100.315,3.02224e-3
14.79,262.37,12.670,100.315,-7.31822e-4
14.79,262.27,12.670,100.315,-1.91180e-3
14.80,262.18,12.670,100.315,-1.76942e-3
14.80,262.08,12.670,100.315,7.08438e-5
14.81,261.98,12.670,100.315,1.34434e-3
14.81,261.89,12.670,100.315,2.82943e-4
14.82,261.79,12.670,100.315,-2.35845e-4
14.82,261.69,12.670,100.315,-9.18944e-4
14.83,261.59,12.670,100.315,9.42507e-4
14.83,261.50,12.670,100.315,-5.18237e-4
14.84,261.40,12.670,100.315,1.01256e-3
14.84,261.30,12.670,100.315,1.05937e-3
14.85,261.20,12.670,100.315,1.41110e-4
14.85,261.11,12.670,100.315,2.11745e-4
14.86,261.01,12.670,100.315,1.41194e-4
14.86,260.91,12.670,100.315,-1.34010e-3
14.87,260.82,12.670,100.315,-2.39768e-3
14.87,260.72,12.670,100.315,-1.22216e-3
14.88,260.62,12.670,100.316,-1.43327e-3
14.88,260.52,12.670,100.316,8.92857e-4
14.89,260.43,12.670,100.316,-9.15872e-4
14.89,260.33,12.670,100.315,2.53593e-3
14.90,260.23,12.670,100.315,2.81690e-3
14.90,260.13,12.670,100.315,-4.69241e-4
14.91,260.04,12.670,100.315,-3.98801e-4
14.91,259.94,12.670,100.315,-1.73576e-3
14.92,259.84,12.670,100.315,-1.14954e-3
14.92,259.74,12.670,100.316,-2.22675e-3
14.93,259.65,12.670,100.316,9.37559e-5
14.93,259.55,12.670,100.316,2.31959e-3
14.94,259.45,12.670,100.315,2.92877e-3
14.94,259.35,12.670,100.315,-2.29616e-3
14.95,259.25,12.670,100.315,9.13557e-4
14.95,259.16,12.670,100.315,3.04592e-4
14.96,259.06,12.670,100.315,-5.62100e-4
14.96,258.96,12.670,100.315,9.60203e-4
14.97,258.86,12.670,100.315,-6.32154e-4
14.97,258.77,12.670,100.315,-6.32277e-4
14.98,258.67,12.670,100.315,-4.44871e-4
14.98,258.57,12.670,100.315,1.42828e-3
14.99,258.47,12.670,100.315,-4.68165e-4
14.99,258.38,12.670,100.315,-1.35757e-3
15.00,258.28,12.670,100.315,-1.77878e-3
15.00,258.18,12.670,100.316,-2.48055e-3
15.01,258.08,12.670,100.316,-9.12553e-4
15.01,257.98,12.670,100.316,-1.42744e-3
15.02,257.89,12.670,100.316,-9.59738e-4
15.02,257.79,12.670,100.316,-1.63800e-3
15.03,257.69,12.670,100.316,-1.75521e-3
15.03,257.59,12.670,100.316,-1.89607e-3
15.04,257.50,12.670,100.317,-1.91891e-3
15.04,257.40,12.670,100.317,3.51097e-4
15.05,257.30,12.670,100.317,3.16011e-3
15.05,257.20,12.670,100.316,1.70880e-3
15.06,257.10,12.670,100.316,-1.12365e-3
15.06,257.01,12.670,100.316,1.59218e-3
15.07,256.91,12.670,100.316,-3.27715e-4
15.07,256.81,12.670,100.316,-5.38429e-4
15.08,256.71,12.670,100.316,-1.54532e-3
15.08,256.62,12.670,100.317,-1.33516e-3
15.09,256.52,12.670,100.317,-3.13904e-3
15.09,256.42,12.670,100.317,-1.54593e-3
15.10,256.32,12.670,100.317,2.10880e-4
15.10,256.22,12.670,100.317,3.60825e-3
15.11,256.13,12.670,100.317,3.51317e-4
15.11,256.03,12.670,100.317,-2.83537e-3
15.12,255.93,12.670,100.317,-4.45158e-4
15.12,255.83,12.670,100.317,-1.47668e-3
15.13,255.74,12.670,100.317,-1.07829e-3
15.13,255.64,12.670,100.317,9.84874e-4
15.14,255.54,12.670,100.317,2.34524e-4
15.14,255.44,12.670,100.317,-9.38317e-4
15.15,255.35,12.670,100.317,-6.09981e-4
15.15,255.25,12.670,100.317,1.14957e-3
15.16,255.15,12.670,100.317,2.81554e-4
15.16,255.05,12.670,100.317,-1.90076e-3
15.17,254.96,12.670,100.317,-6.57063e-4
15.17,254.86,12.670,100.317,1.94786e-3
15.18,254.76,12.670,100.317,8.92175e-4
15.18,254.66,12.670,100.317,-2.08955e-3
15.19,254.57,12.670,100.317,-1.78490e-3
15.19,254.47,12.670,100.318,-1.43295e-3
15.20,254.37,12.670,100.318,6.57895e-4
15.20,254.27,12.670,100.318,1.69191e-3
15.21,254.18,12.670,100.317,9.87134e-4
15.21,254.08,12.670,100.317,-2.11585e-4
15.22,253.98,12.670,100.317,1.62220e-3
15.22,253.88,12.670,100.317,-1.83420e-3
15.23,253.79,12.670,100.317,7.05550e-5
15.23,253.69,12.670,100.317,-3.29257e-4
15.24,253.59,12.670,100.317,-1.19955e-3
15.24,253.49,12.670,100.318,-9.40911e-5
15.25,253.40,12.670,100.317,1.05895e-3
15.25,253.30,12.670,100.317,2.32989e-3
15.26,253.20,12.670,100.317,1.03595e-3
15.26,253.11,12.670,100.317,-8.47458e-4
15.27,253.01,12.670,100.317,-2.35449e-5
15.27,252.91,12.670,100.317,2.35205e-5
15.28,252.81,12.670,100.317,-1.57815e-3
15.28,252.72,12.670,100.317,-4.00377e-4
15.29,252.62,12.670,100.317,3.53354e-4
15.29,252.52,12.670,100.317,2.89821e-3
15.30,252.43,12.670,100.317,4.47784e-4
15.30,252.33,12.670,100.317,-9.19069e-4
15.31,252.23,12.670,100.317,-1.53199e-3
15.31,252.13,12.670,100.317,1.76823e-3
15.32,252.04,12.670,100.317,-2.75838e-3
15.32,251.94,12.670,100.317,-1.88631e-3
15.33,251.84,12.670,100.318,-3.53774e-3
15.33,251.75,12.670,100.318,3.49027e-3
15.34,251.65,12.670,100.317,2.33503e-3
15.34,251.55,12.670,100.317,1.88733e-4
15.35,251.45,12.670,100.317,-8.25841e-4
15.35,251.36,12.670,100.317,1.48655e-3
15.36,251.26,12.670,100.317,-7.07324e-5
15.36,251.16,12.670,100.317,-2.52448e-3
15.37,251.07,12.670,100.317,-1.27419e-3
15.37,250.97,12.670,100.318,-3.32749e-3
15.38,250.87,12.670,100.318,-1.69919e-3
15.38,250.78,12.670,100.318,4.72016e-4
15.39,250.68,12.670,100.318,4.17784e-3
15.39,250.58,12.670,100.317,2.05330e-3
15.40,250.48,12.670,100.317,-9.67598e-4
15.40,250.39,12.670,100.318,-2.12329e-4
15.41,250.29,12.670,100.318,-1.46348e-3
15.41,250.19,12.670,100.318,-1.58132e-3
15.42,250.10,12.670,100.318,2.07703e-3
15.42,250.00,12.670,100.318,2.54877e-3
15.43,249.90,12.670,100.317,2.80793e-3
15.43,249.81,12.670,100.317,-3.13861e-3
15.44,249.71,12.670,100.317,4.72054e-5
15.44,249.61,12.670,100.317,2.12364e-4
15.45,249.51,12.670,100.318,9.44465e-5
15.45,249.42,12.670,100.317,-2.35909e-4
15.46,249.32,12.670,100.317,1.17980e-4
15.46,249.22,12.670,100.317,-7.07458e-5
15.47,249.13,12.670,100.318,-2.02943e-3
15.47,249.03,12.670,100.318,-1.17940e-4
15.48,248.93,12.670,100.318,-7.07759e-4
15.48,248.84,12.670,100.318,-1.65161e-4
15.49,248.74,12.670,100.318,2.33568e-3
15.49,248.64,12.670,100.317,3.01945e-3
15.50,248.54,12.670,100.317,8.72684e-4
15.50,248.45,12.670,100.317,-1.62711e-3
15.51,248.35,12.670,100.317,6.36706e-4
15.51,248.25,12.670,100.317,-2.05145e-3
15.52,248.16,12.670,100.317,1.43835e-3
15.52,248.06,12.670,100.317,-5.89518e-4
15.53,247.96,12.670,100.318,-2.56982e-3
15.53,247.87,12.670,100.318,-1.41485e-4
15.54,247.77,12.670,100.318,-1.20211e-3
15.54,247.67,12.670,100.318,3.53642e-4
15.55,247.57,12.670,100.318,4.71809e-5
15.55,247.48,12.670,100.318,1.65001e-4
15.56,247.38,12.670,100.318,-3.29924e-4
15.56,247.28,12.670,100.318,-4.71287e-4
15.57,247.19,12.670,100.318,2.00283e-3
15.57,247.09,12.670,100.317,2.35657e-3
15.58,246.99,12.670,100.317,-1.64939e-4
15.58,246.89,12.670,100.317,-2.04973e-3
15.59,246.80,12.670,100.318,-1.10704e-3
15.59,246.70,12.670,100.318,3.06270e-4
15.60,246.60,12.670,100.318,5.18383e-4
15.60,246.51,12.670,100.317,6.12554e-4
15.61,246.41,12.670,100.318,-2.70907e-3
15.61,246.31,12.670,100.318,-9.65757e-4
15.62,246.21,12.670,100.318,-2.14319e-3
15.62,246.12,12.670,100.318,-1.24837e-3
15.63,246.02,12.670,100.318,5.88789e-4
15.63,245.92,12.670,100.318,7.06547e-4
15.64,245.83,12.670,100.318,1.55418e-3
15.64,245.73,12.670,100.318,3.29664e-4
15.65,245.63,12.670,100.318,-1.48354e-3
15.65,245.53,12.670,100.318,-8.00576e-4
15.66,245.44,12.670,100.318,4.23846e-4
15.66,245.34,12.670,100.318,3.05918e-4
15.67,245.24,12.670,100.318,4.70167e-5
15.67,245.14,12.670,100.318,1.55294e-3
15.68,245.05,12.670,100.318,-1.17645e-4
15.68,244.95,12.670,100.318,5.64595e-4
15.69,244.85,12.670,100.318,-1.10554e-3
15.69,244.76,12.670,100.318,-3.99748e-4
15.70,244.66,12.670,100.318,-1.74019e-3
15.70,244.56,12.670,100.318,2.13939e-3
15.71,244.46,12.670,100.318,1.31677e-3
15.71,244.37,12.670,100.318,-5.40760e-4
15.72,244.27,12.670,100.318,-2.35073e-5
15.72,244.17,12.670,100.318,-3.28976e-4
15.73,244.07,12.670,100.318,1.05766e-3
15.73,243.98,12.670,100.318,2.35382e-5
15.74,243.88,12.670,100.318,-2.67921e-3
15.74,243.78,12.670,100.318,-2.81950e-4
15.75,243.68,12.670,100.318,7.04931e-5
15.75,243.59,12.670,100.318,4.46429e-4
15.76,243.49,12.670,100.318,-1.57425e-3
15.76,243.39,12.670,100.318,-1.24530e-3
15.77,243.29,12.670,100.318,3.75940e-4
15.77,243.20,12.670,100.318,-5.16862e-4
15.78,243.10,12.670,100.318,2.06737e-3
15.78,243.00,12.670,100.318,-1.17453e-3
15.79,242.90,12.670,100.318,-8.92539e-4
15.79,242.81,12.671,100.318,-1.10380e-3
15.80,242.71,12.671,100.318,1.71481e-3
15.80,242.61,12.670,100.318,6.57539e-4
15.81,242.52,12.670,100.318,-2.35271e-5
15.81,242.42,12.670,100.318,7.04093e-5
15.82,242.32,12.670,100.318,4.69704e-5
15.82,242.22,12.670,100.318,-7.04450e-4
15.83,242.13,12.670,100.318,1.24472e-3
15.83,242.03,12.670,100.318,7.74855e-4
15.84,241.93,12.670,100.318,-1.64373e-3
15.84,241.83,12.670,100.318,-1.10361e-3
15.85,241.74,12.670,100.318,9.39232e-4
15.85,241.64,12.670,100.318,9.37997e-5
15.86,241.54,12.670,100.318,-7.51288e-4
15.86,241.44,12.671,100.318,-1.69014e-3
15.87,241.35,12.671,100.319,7.04225e-5
15.87,241.25,12.670,100.318,1.50213e-3
15.88,241.15,12.670,100.318,-1.94790e-3
15.88,241.05,12.671,100.319,-1.94807e-3
15.89,240.96,12.671,100.319,2.81637e-4
15.89,240.86,12.671,100.319,-2.01838e-3
15.90,240.76,12.671,100.319,-1.29078e-3
15.90,240.66,12.671,100.319,2.81690e-4
15.91,240.57,12.671,100.319,2.20630e-3
15.91,240.47,12.671,100.319,-9.15400e-4
15.92,240.37,12.671,100.319,2.25307e-3
15.92,240.27,12.671,100.318,3.19184e-3
15.93,240.18,12.670,100.318,-5.39803e-4
15.93,240.08,12.670,100.318,-1.05610e-3
15.94,239.98,12.671,100.319,-2.81582e-3
15.94,239.88,12.671,100.319,-1.57241e-3
15.95,239.79,12.671,100.319,-2.29973e-3
15.95,239.69,12.671,100.319,-1.94775e-3
15.96,239.59,12.671,100.320,-3.75411e-3
15.96,239.49,12.671,100.320,8.68340e-4
15.97,239.40,12.671,100.320,-3.98957e-4
15.97,239.30,12.671,100.320,2.53501e-3
15.98,239.20,12.671,100.319,1.22030e-3
15.98,239.10,12.671,100.319,-2.58132e-4
15.99,239.00,12.671,100.319,-1.17294e-4
15.99,238.91,12.671,100.319,-1.36127e-3
16.00,238.81,12.671,100.319,-1.80707e-3
16.00,238.71,12.671,100.320,-8.92034e-4
16.01,238.61,12.671,100.320,1.38501e-3
16.01,238.52,12.671,100.319,6.80817e-4
16.02,238.42,12.671,100.320,-1.50235e-3
16.02,238.32,12.671,100.320,-1.99531e-3
16.03,238.22,12.671,100.320,1.29126e-3
16.03,238.13,12.671,100.320,1.26761e-3
16.04,238.03,12.671,100.320,-3.56808e-3
16.04,237.93,12.671,100.320,-5.16353e-4
16.05,237.83,12.671,100.320,-6.80751e-4
16.05,237.74,12.671,100.320,5.39906e-4
16.06,237.64,12.671,100.320,1.94836e-3
16.06,237.54,12.671,100.320,-2.55869e-3
16.07,237.44,12.671,100.320,6.33803e-4
16.07,237.35,12.671,100.320,-1.40845e-4
16.08,237.25,12.671,100.320,-6.33752e-4
16.08,237.15,12.671,100.320,-1.26748e-3
16.09,237.05,12.671,100.320,-2.34918e-5
16.09,236.96,12.671,100.320,1.24407e-3
16.10,236.86,12.671,100.320,1.80749e-3
16.10,236.76,12.671,100.320,1.43162e-3
16.11,236.66,12.671,100.320,-9.85781e-4
16.11,236.57,12.671,100.320,1.26743e-3
16.12,236.47,12.671,100.320,-7.74458e-4
16.12,236.37,12.671,100.320,1.50199e-3
16.13,236.27,12.671,100.320,-1.19712e-3
16.13,236.18,12.671,100.320,-1.66628e-3
16.14,236.08,12.671,100.320,-2.74648e-3
16.14,235.98,12.671,100.320,-2.58251e-3
16.15,235.88,12.671,100.320,1.07991e-3
16.15,235.79,12.671,100.320,1.64374e-4
16.16,235.69,12.671,100.320,-5.16617e-4
16.16,235.59,12.671,100.320,2.84151e-3
16.17,235.49,12.671,100.320,3.05254e-3
16.17,235.40,12.671,100.320,1.90220e-3
16.18,235.30,12.671,100.320,-2.04321e-3
16.18,235.20,12.671,100.320,-1.05705e-3
16.19,235.10,12.671,100.320,-2.02046e-3
16.19,235.01,12.671,100.320,-1.83253e-3
16.20,234.91,12.671,100.320,-1.38604e-3
16.20,234.81,12.671,100.321,-1.66803e-3
16.21,234.72,12.671,100.321,-1.90320e-3
16.21,234.62,12.671,100.321,-3.26598e-3
16.22,234.52,12.671,100.321,3.28900e-3
16.22,234.42,12.671,100.321,4.93306e-4
16.23,234.33,12.671,100.321,-6.10902e-4
16.23,234.23,12.671,100.321,-3.29038e-4
16.24,234.13,12.671,100.321,2.34918e-5
16.24,234.03,12.671,100.321,-1.08109e-3
16.25,233.94,12.671,100.321,-2.16217e-3
16.25,233.84,12.671,100.321,-7.51928e-4
16.26,233.74,12.671,100.321,-1.05783e-3
16.26,233.64,12.671,100.321,-1.26923e-3
16.27,233.55,12.671,100.321,1.15198e-3
16.27,233.45,12.671,100.321,1.08133e-3
16.28,233.35,12.671,100.321,-1.83367e-3
16.28,233.25,12.671,100.322,-3.36124e-3
16.29,233.16,12.671,100.322,-5.64246e-4
16.29,233.06,12.671,100.322,-9.40645e-5
16.30,232.96,12.671,100.322,-3.99734e-4
16.30,232.86,12.671,100.322,2.11627e-4
16.31,232.77,12.671,100.322,1.83443e-3
16.31,232.67,12.671,100.322,6.86053e-8
16.32,232.57,12.671,100.322,-2.86992e-3
16.32,232.48,12.671,100.322,4.47059e-4
16.33,232.38,12.671,100.322,-7.76471e-4
16.33,232.28,12.671,100.322,1.64706e-4
16.34,232.18,12.671,100.322,-1.45882e-3
16.34,232.09,12.671,100.322,7.05860e-4
16.35,231.99,12.671,100.322,1.10588e-3
16.35,231.89,12.671,100.322,-8.94202e-4
16.36,231.79,12.671,100.322,-9.41597e-5
16.36,231.70,12.671,100.322,-8.23665e-4
16.37,231.60,12.671,100.322,-7.05882e-4
16.37,231.50,12.671,100.322,1.01188e-3
16.38,231.41,12.671,100.322,9.41270e-4
16.38,231.31,12.671,100.322,-1.17676e-4
16.39,231.21,12.671,100.322,2.11778e-4
16.39,231.11,12.671,100.322,4.94308e-4
16.40,231.02,12.671,100.322,3.05995e-4
16.40,230.92,12.671,100.322,-1.64757e-4
16.41,230.82,12.671,100.322,-1.95365e-3
16.41,230.72,12.671,100.322,6.59092e-4
16.42,230.63,12.671,100.322,6.82444e-4
16.42,230.53,12.671,100.322,-3.05944e-4
16.43,230.43,12.671,100.322,8.70894e-4
16.43,230.34,12.671,100.322,-4.44808e-3
16.44,230.24,12.671,100.322,-4.70810e-5
16.44,230.14,12.671,100.322,-1.38867e-3
16.45,230.04,12.671,100.323,-1.90651e-3
16.45,229.95,12.671,100.323,-1.17685e-3
16.46,229.85,12.671,100.323,-4.00308e-4
16.46,229.75,12.671,100.323,3.29649e-4
16.47,229.66,12.671,100.323,-9.18248e-4
16.47,229.56,12.671,100.323,-2.82479e-3
16.48,229.46,12.671,100.323,1.01224e-3
16.48,229.36,12.671,100.323,8.23868e-4
16.49,229.27,12.671,100.323,-7.06215e-4
16.49,229.17,12.671,100.323,1.01224e-3
16.50,229.07,12.671,100.323,-2.35405e-5
16.50,228.97,12.671,100.323,-1.08286e-3
16.51,228.88,12.671,100.323,-1.24745e-3
16.51,228.78,12.671,100.323,-1.76533e-3
16.52,228.68,12.671,100.323,1.55340e-3
16.52,228.59,12.671,100.323,3.76576e-3
16.53,228.49,12.671,100.323,1.41247e-4
16.53,228.39,12.671,100.323,-3.67129e-3
16.54,228.29,12.671,100.323,-9.64655e-4
16.54,228.20,12.671,100.323,3.52988e-4
16.55,228.10,12.671,100.323,1.76471e-3
16.55,228.00,12.671,100.323,-3.99973e-4
16.56,227.90,12.671,100.323,-3.43449e-3
16.56,227.81,12.671,100.324,-2.68212e-3
16.57,227.71,12.671,100.324,-6.58649e-4
16.57,227.61,12.671,100.324,1.48217e-3
16.58,227.52,12.671,100.324,6.58680e-4
16.58,227.42,12.671,100.323,1.34113e-3
16.59,227.32,12.671,100.324,-2.37615e-3
16.59,227.22,12.671,100.324,-1.95269e-3
16.60,227.13,12.671,100.324,-7.29412e-4
16.60,227.03,12.671,100.324,-1.22335e-3
16.61,226.93,12.671,100.324,-1.52921e-3
16.61,226.83,12.671,100.324,3.99918e-4
16.62,226.74,12.671,100.324,-8.93777e-4
16.62,226.64,12.671,100.324,4.46970e-4
16.63,226.54,12.671,100.324,-1.59977e-3
16.63,226.45,12.671,100.324,-1.74068e-3
16.64,226.35,12.671,100.325,-1.78795e-3
16.64,226.25,12.671,100.325,-5.17490e-4
16.65,226.15,12.671,100.325,1.48200e-3
16.65,226.06,12.671,100.325,1.88180e-4
16.66,225.96,12.671,100.325,1.01129e-3
16.66,225.86,12.671,100.324,-5.87959e-4
16.67,225.76,12.671,100.324,2.09340e-3
16.67,225.67,12.671,100.324,-2.84608e-3
16.68,225.57,12.671,100.325,4.93894e-4
16.68,225.47,12.671,100.324,2.35228e-4
16.69,225.38,12.671,100.324,1.27042e-3
16.69,225.28,12.671,100.324,4.70429e-4
16.70,225.18,12.671,100.325,-4.21029e-3
16.70,225.08,12.671,100.325,1.69367e-3
16.71,224.99,12.671,100.325,1.12924e-3
16.71,224.89,12.671,100.324,1.17618e-3
16.72,224.79,12.671,100.325,-3.29288e-3
16.72,224.69,12.671,100.325,-3.29310e-4
16.73,224.60,12.671,100.325,-3.52775e-4
16.73,224.50,12.671,100.325,-1.43476e-3
16.74,224.40,12.671,100.325,-7.99537e-4
16.74,224.30,12.671,100.325,-2.16340e-3
16.75,224.21,12.671,100.325,-1.69332e-3
16.75,224.11,12.671,100.325,-1.31671e-3
16.76,224.01,12.671,100.325,2.35146e-4
16.76,223.92,12.671,100.325,1.31683e-3
16.77,223.82,12.671,100.325,-4.93839e-4
16.77,223.72,12.671,100.325,-8.23082e-4
16.78,223.62,12.671,100.326,-2.86882e-3
16.78,223.53,12.671,100.326,-7.75869e-4
16.79,223.43,12.671,100.326,1.41210e-4
16.79,223.33,12.671,100.326,2.35803e-5
16.80,223.23,12.671,100.326,-1.08172e-3
16.80,223.14,12.671,100.326,-6.11189e-4
16.81,223.04,12.671,100.326,-2.42125e-3
16.81,222.94,12.671,100.326,1.57499e-3
16.82,222.84,12.671,100.326,-7.28790e-4
16.82,222.75,12.671,100.326,-4.27779e-3
16.83,222.65,12.672,100.327,-2.18618e-3
16.83,222.55,12.672,100.327,-3.14962e-3
16.84,222.46,12.672,100.327,-2.02121e-3
16.84,222.36,12.672,100.327,-1.31600e-3
16.85,222.26,12.672,100.327,1.31606e-3
16.85,222.16,12.672,100.327,3.78467e-3
16.86,222.07,12.672,100.327,-6.81599e-4
16.86,221.97,12.672,100.327,-3.33728e-3
16.87,221.87,12.672,100.327,3.29040e-4
16.87,221.77,12.672,100.327,-1.57457e-3
16.88,221.68,12.672,100.327,-1.29270e-3
16.88,221.58,12.672,100.328,-1.83348e-3
16.89,221.48,12.672,100.328,4.70146e-5
16.89,221.38,12.672,100.328,4.46638e-4
16.90,221.29,12.672,100.328,-4.70146e-4
16.90,221.19,12.672,100.328,2.02137e-3
16.91,221.09,12.672,100.328,-1.62163e-3
16.91,220.99,12.672,100.328,-3.52600e-4
16.92,220.90,12.672,100.328,-2.42049e-3
16.92,220.80,12.672,100.328,-1.57472e-3
16.93,220.70,12.672,100.328,4.70124e-5
16.93,220.60,12.672,100.328,1.17510e-3
16.94,220.51,12.672,100.328,-9.63567e-4
16.94,220.41,12.672,100.328,-1.08102e-3
16.95,220.31,12.672,100.328,4.69925e-5
16.95,220.22,12.672,100.328,-4.22999e-4
16.96,220.12,12.672,100.328,1.43327e-3
16.96,220.02,12.672,100.328,5.87523e-4
16.97,219.92,12.672,100.328,-1.64405e-4
16.97,219.83,12.672,100.328,-2.34720e-5
16.98,219.73,12.672,100.328,-1.03374e-3
16.98,219.63,12.672,100.328,-6.81217e-4
16.99,219.53,12.672,100.328,-7.04700e-4
16.99,219.44,12.672,100.328,1.94947e-3
17.00,219.34,12.672,100.328,-1.33890e-3
17.00,219.24,12.672,100.328,-5.87190e-4
17.01,219.14,12.672,100.328,2.16064e-3
17.01,219.05,12.672,100.328,1.40889e-4
17.02,218.95,12.672,100.328,-4.93158e-4
17.02,218.85,12.672,100.328,-5.40034e-4
17.03,218.75,12.672,100.328,-3.05208e-4
17.03,218.66,12.672,100.328,-3.52267e-4
17.04,218.56,12.672,100.328,-1.97276e-3
17.04,218.46,12.672,100.328,1.64383e-4
17.05,218.36,12.672,100.328,-7.04556e-4
17.05,218.27,12.672,100.329,-1.08024e-3
17.06,218.17,12.672,100.329,-2.16064e-3
17.06,218.07,12.672,100.329,-1.52654e-3
17.07,217.97,12.672,100.329,-2.65442e-3
17.07,217.88,12.672,100.329,-9.39638e-4
17.08,217.78,12.672,100.329,6.10723e-4
17.08,217.68,12.672,100.329,7.04819e-4
17.09,217.58,12.672,100.329,3.52373e-4
17.09,217.49,12.672,100.329,-2.04396e-3
17.10,217.39,12.672,100.329,6.81234e-4
17.10,217.29,12.672,100.329,-2.11409e-4
17.11,217.19,12.672,100.329,-1.76180e-3
17.11,217.10,12.672,100.329,1.08058e-3
17.12,217.00,12.672,100.329,-4.69505e-5
17.12,216.90,12.672,100.329,-9.86608e-4
17.13,216.80,12.672,100.329,7.75365e-4
17.13,216.71,12.672,100.329,-2.34830e-5
17.14,216.61,12.672,100.329,1.08069e-3
17.14,216.51,12.672,100.329,1.22197e-3
17.15,216.42,12.672,100.329,2.34962e-5
17.15,216.32,12.672,100.329,-2.98371e-3
17.16,216.22,12.672,100.329,1.66780e-3
17.16,216.12,12.672,100.329,6.34264e-4
17.17,216.03,12.672,100.329,-1.90315e-3
17.17,215.93,12.672,100.329,-5.63890e-4
17.18,215.83,12.672,100.329,-3.05376e-4
17.18,215.73,12.672,100.329,1.59751e-3
17.19,215.64,12.672,100.329,-2.11376e-4
17.19,215.54,12.672,100.329,1.50341e-3
17.20,215.44,12.672,100.329,-2.02014e-3
17.20,215.34,12.672,100.329,-8.45553e-4
17.21,215.25,12.672,100.330,-1.45608e-3
17.21,215.15,12.672,100.330,-1.62048e-3
17.22,215.05,12.672,100.330,1.45591e-3
17.22,214.95,12.672,100.330,-1.40891e-4
17.23,214.86,12.672,100.330,-4.69528e-4
17.23,214.76,12.672,100.330,-7.98122e-4
17.24,214.66,12.672,100.330,-9.15581e-4
17.24,214.56,12.672,100.330,-3.28639e-4
17.25,214.47,12.672,100.330,9.39091e-4
17.25,214.37,12.672,100.330,-6.10271e-4
17.26,214.27,12.672,100.330,-4.10741e-3
17.26,214.17,12.672,100.330,1.14999e-3
17.27,214.11,12.672,100.330,2.58152e-3