File: instrument_data/TGA/Co(phen)2(SCN)2 electromagnet 150-250-1001172022.csv
Filename,Co(phen)2(SCN)2 electromagnet 150-250-1001172022
Instrument name,5500-0566 (192.168.10.4)
Operator,Adam K
rundate,11/7/2022
Sample name,Co(phen)2(SCN)2 electromagnet 150-250-100
proceduresegments,Equilibrate 120.00 °C; Isothermal 1.0 min; Electromagnet On 50.0 %; Equilibrate 150.00 °C; Ramp 5.00 °C/min to 250.00 °C; Equilibrate 250.00 °C; Ramp 10.00 °C/min to 100.00 °C; Equilibrate 100.00 °C
[File Parameters]
Run date,11/7/2022 4:45:40 PM
Trios version,5.3.0.48151
Original File Name,C:\ProgramData\TA Instruments\TRIOS\Data\CH302_B3_22_AK\Co(phen)2(SCN)2 electromagnet 150-250-1001172022.tri
Current File Name,C:/ProgramData/TA Instruments/TRIOS/Data/CH302_B3_22_AK/Co(phen)2(SCN)2 electromagnet 150-250-1001172022.tri
User at run start,CH-CBWNNF3-0721\ChemLocal
[Procedure]
Procedure Name,
Sample Name,Co(phen)2(SCN)2 electromagnet 150-250-100
Pan Number,3
Sample Mass,5.401 mg
Pan Type,Aluminum
Comments,
Project Name,Spin Crossover
Operator,Adam K
Test,Custom
Skip Weight Stabilization,False
Sample mass pre-weigh,Not Available
Stop on Gas Flow Error,No
[Signal List]
Signal #1,Time (min)
Signal #2,Temperature (°C)
Signal #3,Weight (mg)
Signal #4,Temperature Difference (°C)
Signal #5,Sample Purge (mL/min)
Signal #6,Balance Purge (mL/min)
Signal #7,Set Point Temperature (°C)
Signal #8,Power Delivered (W)
Signal #9,Ramp Rate (°C/min)
[Configuration]
Company Name,localcc
Instrument Name,5500-0566
Instrument Type,TGA5500
Serial Number,5500-0566
IP,192.168.10.4
Location of Instrument,Olin Hall Rm 364
DisplayType,TianmaV2
Sample Interval ,0.1 s/pt
Gas 1,Nitrogen
Gas 2,Air
Selected Gas Channel,1
MTGA HiRes Licensed,Yes
[Versions]
Common IDD Version,1
Cortex Version,VER 2.1.2.60
Driver,5.0.0.6
GDM Version,1.2.1.2
TouchscreenVersion,1.0.3.1795
PCU Version,1.2.0.15
Transducer Version,1.1.0.32
[Experiment Logs]
Experiment Log Entry # 1,Equilibrate Segment 120 (C) Started
Experiment Log Entry # 3,Isothermal Segment 1 min started
Experiment Log Entry # 5,"Curie Magnet Segment enable 1, 50 %"
Experiment Log Entry # 7,Equilibrate Segment 150 (C) Started
Experiment Log Entry # 9,Ramp Segment 5 C/min to 250 C Started
Experiment Log Entry # 11,Equilibrate Segment 250 (C) Started
Experiment Log Entry # 13,Ramp Segment 10 C/min to 100 C Started
Experiment Log Entry # 15,Equilibrate Segment 100 (C) Started
[Method Log]
Method Log Entry # 1,Equilibrate 120 °C
Method Log Entry # 2,Isothermal 1 minutes
Method Log Entry # 3,Electromagnet On 50 %
Method Log Entry # 4,Equilibrate 150 °C
Method Log Entry # 5,(Ramp 8343) Ramp 5 °C/minute to 250 °C
Method Log Entry # 6,Equilibrate 250 °C
Method Log Entry # 7,(Ramp 8345) Ramp 10 °C/minute to 100 °C
Method Log Entry # 8,Equilibrate 100 °C
[Weight Calibration]
Date Applied,7/20/2022 10:21:44 AM
Empty Pan Number,23
Empty Pan Weight,341.358 mg
Low Reference Weight Pan Number,24
Low Reference Weight,442.546 mg
High Reference Weight Pan Number,25
High Reference Weight,"1,243.774 mg"
Low Gain Meter Reading,9.9772E-006 mg/count
High Gain Meter Reading,7.9459E-005 mg/count
Low Meter Offset,31.8759 mg
High Meter Offset,613.7978 mg
[Curie Calibration]
Date Applied,8/11/2021 12:40:46 PM
Description,From 256.990 °C to 456.990 °C at 20.000°C/min
Gas Type,Nitrogen
Pan Type,Platinum (100 uL)
Source Files 1,C:\ProgramData\TA Instruments\TRIOS\Data\Nickel Calibration.tri
Source Files 2,C:\ProgramData\TA Instruments\TRIOS\Data\Alumel Calibration.tri
Measured 1,158.9083
Known 1,154.16
Measured 2,358.1255
Known 2,356.99
[step]
Isothermal 1.0 min
Time,Temperature,Weight,Weight
min,°C,mg,%
0.00,120.17,5.317,98.434
0.00,120.17,5.317,98.434
0.00,120.17,5.317,98.434
0.01,120.17,5.317,98.433
0.01,120.18,5.316,98.433
0.01,120.18,5.316,98.433
0.01,120.18,5.316,98.432
0.01,120.18,5.316,98.433
0.01,120.18,5.316,98.432
0.01,120.18,5.316,98.432
0.02,120.18,5.316,98.432
0.02,120.18,5.316,98.432
0.02,120.19,5.316,98.432
0.02,120.19,5.316,98.432
0.02,120.19,5.316,98.432
0.03,120.19,5.316,98.432
0.03,120.19,5.316,98.432
0.03,120.19,5.316,98.432
0.03,120.19,5.316,98.432
0.03,120.19,5.316,98.432
0.03,120.20,5.316,98.432
0.03,120.20,5.316,98.432
0.04,120.20,5.316,98.432
0.04,120.20,5.316,98.431
0.04,120.20,5.316,98.431
0.04,120.20,5.316,98.431
0.04,120.20,5.316,98.431
0.05,120.20,5.316,98.430
0.05,120.21,5.316,98.430
0.05,120.21,5.316,98.430
0.05,120.21,5.316,98.430
0.05,120.21,5.316,98.430
0.05,120.21,5.316,98.430
0.05,120.21,5.316,98.430
0.06,120.21,5.316,98.430
0.06,120.21,5.316,98.430
0.06,120.21,5.316,98.430
0.06,120.22,5.316,98.430
0.06,120.22,5.316,98.429
0.07,120.22,5.316,98.429
0.07,120.22,5.316,98.429
0.07,120.22,5.316,98.429
0.07,120.22,5.316,98.429
0.07,120.22,5.316,98.428
0.07,120.22,5.316,98.428
0.08,120.22,5.316,98.428
0.08,120.23,5.316,98.428
0.08,120.23,5.316,98.428
0.08,120.23,5.316,98.428
0.08,120.23,5.316,98.428
0.08,120.23,5.316,98.428
0.08,120.23,5.316,98.428
0.09,120.23,5.316,98.428
0.09,120.23,5.316,98.427
0.09,120.23,5.316,98.427
0.09,120.24,5.316,98.427
0.09,120.24,5.316,98.427
0.09,120.24,5.316,98.427
0.10,120.24,5.316,98.427
0.10,120.24,5.316,98.427
0.10,120.24,5.316,98.427
0.10,120.24,5.316,98.427
0.10,120.24,5.316,98.427
0.11,120.24,5.316,98.426
0.11,120.24,5.316,98.426
0.11,120.25,5.316,98.426
0.11,120.25,5.316,98.426
0.11,120.25,5.316,98.426
0.11,120.25,5.316,98.426
0.12,120.25,5.316,98.426
0.12,120.25,5.316,98.426
0.12,120.25,5.316,98.425
0.12,120.25,5.316,98.425
0.12,120.25,5.316,98.425
0.12,120.25,5.316,98.425
0.13,120.26,5.316,98.425
0.13,120.26,5.316,98.425
0.13,120.26,5.316,98.425
0.13,120.26,5.316,98.425
0.13,120.26,5.316,98.425
0.13,120.26,5.316,98.425
0.14,120.26,5.316,98.425
0.14,120.26,5.316,98.424
0.14,120.26,5.316,98.424
0.14,120.26,5.316,98.424
0.14,120.27,5.316,98.424
0.14,120.27,5.316,98.424
0.14,120.27,5.316,98.424
0.15,120.27,5.316,98.423
0.15,120.27,5.316,98.423
0.15,120.27,5.316,98.423
0.15,120.27,5.316,98.423
0.15,120.27,5.316,98.423
0.16,120.27,5.316,98.423
0.16,120.27,5.316,98.423
0.16,120.27,5.316,98.423
0.16,120.28,5.316,98.423
0.16,120.28,5.316,98.423
0.16,120.28,5.316,98.423
0.16,120.28,5.316,98.423
0.17,120.28,5.316,98.422
0.17,120.28,5.316,98.422
0.17,120.28,5.316,98.422
0.17,120.28,5.316,98.422
0.17,120.28,5.316,98.422
0.18,120.28,5.316,98.422
0.18,120.28,5.316,98.422
0.18,120.29,5.316,98.422
0.18,120.29,5.316,98.422
0.18,120.29,5.316,98.421
0.18,120.29,5.316,98.421
0.19,120.29,5.316,98.421
0.19,120.29,5.316,98.421
0.19,120.29,5.316,98.421
0.19,120.29,5.316,98.421
0.19,120.29,5.316,98.421
0.19,120.29,5.316,98.421
0.19,120.29,5.316,98.421
0.20,120.30,5.316,98.421
0.20,120.30,5.316,98.420
0.20,120.30,5.316,98.420
0.20,120.30,5.316,98.420
0.20,120.30,5.316,98.420
0.21,120.30,5.316,98.420
0.21,120.30,5.316,98.420
0.21,120.30,5.316,98.420
0.21,120.30,5.316,98.420
0.21,120.30,5.316,98.420
0.21,120.30,5.316,98.419
0.21,120.30,5.316,98.419
0.22,120.31,5.316,98.419
0.22,120.31,5.316,98.419
0.22,120.31,5.316,98.419
0.22,120.31,5.316,98.419
0.22,120.31,5.316,98.419
0.23,120.31,5.316,98.418
0.23,120.31,5.316,98.418
0.23,120.31,5.316,98.418
0.23,120.31,5.316,98.418
0.23,120.31,5.316,98.418
0.23,120.31,5.316,98.418
0.24,120.31,5.316,98.418
0.24,120.31,5.316,98.418
0.24,120.32,5.316,98.418
0.24,120.32,5.316,98.418
0.24,120.32,5.316,98.418
0.24,120.32,5.316,98.418
0.24,120.32,5.316,98.418
0.25,120.32,5.316,98.418
0.25,120.32,5.316,98.418
0.25,120.32,5.316,98.418
0.25,120.32,5.316,98.418
0.25,120.32,5.316,98.418
0.26,120.32,5.316,98.418
0.26,120.32,5.316,98.417
0.26,120.32,5.316,98.417
0.26,120.33,5.316,98.417
0.26,120.33,5.316,98.417
0.26,120.33,5.316,98.417
0.26,120.33,5.316,98.417
0.27,120.33,5.316,98.417
0.27,120.33,5.316,98.416
0.27,120.33,5.316,98.416
0.27,120.33,5.316,98.417
0.27,120.33,5.316,98.417
0.28,120.33,5.316,98.417
0.28,120.33,5.316,98.417
0.28,120.33,5.316,98.417
0.28,120.33,5.316,98.417
0.28,120.33,5.316,98.417
0.28,120.34,5.316,98.416
0.29,120.34,5.316,98.416
0.29,120.34,5.316,98.416
0.29,120.34,5.316,98.415
0.29,120.34,5.316,98.415
0.29,120.34,5.316,98.415
0.29,120.34,5.316,98.415
0.30,120.34,5.316,98.415
0.30,120.34,5.315,98.415
0.30,120.34,5.315,98.414
0.30,120.34,5.315,98.414
0.30,120.34,5.315,98.414
0.30,120.34,5.315,98.415
0.30,120.34,5.315,98.414
0.31,120.34,5.315,98.414
0.31,120.35,5.315,98.415
0.31,120.35,5.315,98.415
0.31,120.35,5.315,98.414
0.31,120.35,5.315,98.414
0.31,120.35,5.315,98.414
0.32,120.35,5.315,98.414
0.32,120.35,5.315,98.414
0.32,120.35,5.315,98.414
0.32,120.35,5.315,98.414
0.32,120.35,5.315,98.415
0.33,120.35,5.315,98.414
0.33,120.35,5.315,98.414
0.33,120.35,5.315,98.414
0.33,120.35,5.315,98.414
0.33,120.35,5.315,98.414
0.33,120.35,5.315,98.414
0.34,120.36,5.315,98.414
0.34,120.36,5.315,98.414
0.34,120.36,5.315,98.414
0.34,120.36,5.315,98.414
0.34,120.36,5.315,98.413
0.34,120.36,5.315,98.413
0.35,120.36,5.315,98.413
0.35,120.36,5.315,98.413
0.35,120.36,5.315,98.413
0.35,120.36,5.315,98.413
0.35,120.36,5.315,98.413
0.35,120.36,5.315,98.413
0.35,120.36,5.315,98.413
0.36,120.36,5.315,98.412
0.36,120.36,5.315,98.412
0.36,120.36,5.315,98.412
0.36,120.36,5.315,98.412
0.36,120.36,5.315,98.413
0.36,120.37,5.315,98.413
0.37,120.37,5.315,98.413
0.37,120.37,5.315,98.413
0.37,120.37,5.315,98.412
0.37,120.37,5.315,98.412
0.37,120.37,5.315,98.412
0.38,120.37,5.315,98.412
0.38,120.37,5.315,98.412
0.38,120.37,5.315,98.412
0.38,120.37,5.315,98.412
0.38,120.37,5.315,98.412
0.38,120.37,5.315,98.412
0.39,120.37,5.315,98.412
0.39,120.37,5.315,98.412
0.39,120.37,5.315,98.412
0.39,120.37,5.315,98.412
0.39,120.37,5.315,98.412
0.39,120.37,5.315,98.412
0.40,120.37,5.315,98.412
0.40,120.38,5.315,98.412
0.40,120.38,5.315,98.412
0.40,120.38,5.315,98.412
0.40,120.38,5.315,98.412
0.40,120.38,5.315,98.412
0.40,120.38,5.315,98.411
0.41,120.38,5.315,98.411
0.41,120.38,5.315,98.411
0.41,120.38,5.315,98.411
0.41,120.38,5.315,98.411
0.41,120.38,5.315,98.410
0.41,120.38,5.315,98.410
0.42,120.38,5.315,98.410
0.42,120.38,5.315,98.410
0.42,120.38,5.315,98.410
0.42,120.38,5.315,98.410
0.42,120.38,5.315,98.410
0.43,120.38,5.315,98.410
0.43,120.38,5.315,98.410
0.43,120.38,5.315,98.409
0.43,120.38,5.315,98.409
0.43,120.39,5.315,98.409
0.43,120.39,5.315,98.409
0.44,120.39,5.315,98.409
0.44,120.39,5.315,98.409
0.44,120.39,5.315,98.409
0.44,120.39,5.315,98.409
0.44,120.39,5.315,98.409
0.44,120.39,5.315,98.409
0.45,120.39,5.315,98.409
0.45,120.39,5.315,98.409
0.45,120.39,5.315,98.409
0.45,120.39,5.315,98.408
0.45,120.39,5.315,98.408
0.45,120.39,5.315,98.408
0.45,120.39,5.315,98.409
0.46,120.39,5.315,98.409
0.46,120.39,5.315,98.409
0.46,120.39,5.315,98.409
0.46,120.39,5.315,98.409
0.46,120.39,5.315,98.409
0.46,120.39,5.315,98.409
0.47,120.39,5.315,98.408
0.47,120.39,5.315,98.408
0.47,120.39,5.315,98.408
0.47,120.40,5.315,98.408
0.47,120.40,5.315,98.408
0.48,120.40,5.315,98.408
0.48,120.40,5.315,98.408
0.48,120.40,5.315,98.408
0.48,120.40,5.315,98.408
0.48,120.40,5.315,98.408
0.48,120.40,5.315,98.408
0.49,120.40,5.315,98.408
0.49,120.40,5.315,98.407
0.49,120.40,5.315,98.407
0.49,120.40,5.315,98.407
0.49,120.40,5.315,98.407
0.49,120.40,5.315,98.407
0.50,120.40,5.315,98.407
0.50,120.40,5.315,98.407
0.50,120.40,5.315,98.407
0.50,120.40,5.315,98.407
0.50,120.40,5.315,98.407
0.50,120.40,5.315,98.407
0.50,120.40,5.315,98.407
0.51,120.40,5.315,98.407
0.51,120.40,5.315,98.407
0.51,120.40,5.315,98.406
0.51,120.40,5.315,98.406
0.51,120.40,5.315,98.406
0.51,120.40,5.315,98.406
0.52,120.41,5.315,98.405
0.52,120.41,5.315,98.405
0.52,120.41,5.315,98.405
0.52,120.41,5.315,98.405
0.52,120.41,5.315,98.405
0.53,120.41,5.315,98.405
0.53,120.41,5.315,98.405
0.53,120.41,5.315,98.405
0.53,120.41,5.315,98.405
0.53,120.41,5.315,98.405
0.53,120.41,5.315,98.405
0.53,120.41,5.315,98.405
0.54,120.41,5.315,98.405
0.54,120.41,5.315,98.405
0.54,120.41,5.315,98.404
0.54,120.41,5.315,98.404
0.54,120.41,5.315,98.404
0.55,120.41,5.315,98.404
0.55,120.41,5.315,98.403
0.55,120.41,5.315,98.403
0.55,120.41,5.315,98.404
0.55,120.41,5.315,98.403
0.55,120.41,5.315,98.404
0.55,120.41,5.315,98.404
0.56,120.41,5.315,98.404
0.56,120.41,5.315,98.404
0.56,120.41,5.315,98.404
0.56,120.41,5.315,98.404
0.56,120.41,5.315,98.404
0.57,120.41,5.315,98.403
0.57,120.41,5.315,98.403
0.57,120.41,5.315,98.403
0.57,120.41,5.315,98.403
0.57,120.42,5.315,98.403
0.57,120.42,5.315,98.403
0.58,120.42,5.315,98.403
0.58,120.42,5.315,98.403
0.58,120.42,5.315,98.403
0.58,120.42,5.315,98.403
0.58,120.42,5.315,98.403
0.58,120.42,5.315,98.403
0.58,120.42,5.315,98.403
0.59,120.42,5.315,98.403
0.59,120.42,5.315,98.402
0.59,120.42,5.315,98.403
0.59,120.42,5.315,98.403
0.59,120.42,5.315,98.402
0.60,120.42,5.315,98.403
0.60,120.42,5.315,98.403
0.60,120.42,5.315,98.403
0.60,120.42,5.315,98.403
0.60,120.42,5.315,98.403
0.60,120.42,5.315,98.403
0.60,120.42,5.315,98.402
0.61,120.42,5.315,98.402
0.61,120.42,5.315,98.403
0.61,120.42,5.315,98.403
0.61,120.42,5.315,98.403
0.61,120.42,5.315,98.403
0.62,120.42,5.315,98.403
0.62,120.42,5.315,98.403
0.62,120.42,5.315,98.403
0.62,120.42,5.315,98.403
0.62,120.42,5.315,98.403
0.62,120.42,5.315,98.402
0.63,120.42,5.315,98.402
0.63,120.42,5.315,98.402
0.63,120.42,5.315,98.402
0.63,120.42,5.315,98.402
0.63,120.42,5.315,98.402
0.63,120.42,5.315,98.402
0.63,120.42,5.315,98.402
0.64,120.42,5.315,98.402
0.64,120.42,5.315,98.402
0.64,120.42,5.315,98.402
0.64,120.42,5.315,98.402
0.64,120.42,5.315,98.402
0.65,120.43,5.315,98.402
0.65,120.43,5.315,98.402
0.65,120.43,5.315,98.402
0.65,120.43,5.315,98.402
0.65,120.43,5.315,98.401
0.65,120.43,5.315,98.401
0.65,120.43,5.315,98.401
0.66,120.43,5.315,98.401
0.66,120.43,5.315,98.401
0.66,120.43,5.315,98.401
0.66,120.43,5.315,98.401
0.66,120.43,5.315,98.401
0.67,120.43,5.315,98.401
0.67,120.43,5.315,98.401
0.67,120.43,5.315,98.401
0.67,120.43,5.315,98.401
0.67,120.43,5.315,98.401
0.67,120.43,5.315,98.401
0.68,120.43,5.315,98.401
0.68,120.43,5.315,98.402
0.68,120.43,5.315,98.402
0.68,120.43,5.315,98.402
0.68,120.43,5.315,98.402
0.68,120.43,5.315,98.402
0.68,120.43,5.315,98.402
0.69,120.43,5.315,98.402
0.69,120.43,5.315,98.402
0.69,120.43,5.315,98.402
0.69,120.43,5.315,98.402
0.69,120.43,5.315,98.402
0.70,120.43,5.315,98.402
0.70,120.43,5.315,98.402
0.70,120.43,5.315,98.401
0.70,120.43,5.315,98.401
0.70,120.43,5.315,98.401
0.70,120.43,5.315,98.402
0.70,120.43,5.315,98.401
0.71,120.43,5.315,98.401
0.71,120.43,5.315,98.401
0.71,120.43,5.315,98.401
0.71,120.43,5.315,98.401
0.71,120.43,5.315,98.401
0.72,120.43,5.315,98.401
0.72,120.43,5.315,98.401
0.72,120.43,5.315,98.401
0.72,120.43,5.315,98.401
0.72,120.43,5.315,98.401
0.72,120.43,5.315,98.401
0.73,120.43,5.315,98.401
0.73,120.43,5.315,98.401
0.73,120.43,5.315,98.401
0.73,120.43,5.315,98.401
0.73,120.43,5.315,98.401
0.73,120.43,5.315,98.401
0.73,120.43,5.315,98.401
0.74,120.43,5.315,98.401
0.74,120.43,5.315,98.401
0.74,120.43,5.315,98.401
0.74,120.43,5.315,98.401
0.74,120.43,5.315,98.401
0.75,120.43,5.315,98.401
0.75,120.43,5.315,98.401
0.75,120.43,5.315,98.401
0.75,120.43,5.315,98.402
0.75,120.43,5.315,98.402
0.75,120.43,5.315,98.402
0.75,120.43,5.315,98.402
0.76,120.43,5.315,98.402
0.76,120.43,5.315,98.401
0.76,120.43,5.315,98.401
0.76,120.43,5.315,98.401
0.76,120.43,5.315,98.401
0.77,120.43,5.315,98.401
0.77,120.43,5.315,98.401
0.77,120.43,5.315,98.401
0.77,120.43,5.315,98.401
0.77,120.43,5.315,98.401
0.77,120.43,5.315,98.401
0.78,120.43,5.315,98.401
0.78,120.43,5.315,98.401
0.78,120.43,5.315,98.401
0.78,120.43,5.315,98.401
0.78,120.43,5.315,98.401
0.78,120.43,5.315,98.401
0.78,120.43,5.315,98.401
0.79,120.43,5.315,98.401
0.79,120.43,5.315,98.401
0.79,120.43,5.315,98.401
0.79,120.43,5.315,98.401
0.79,120.43,5.315,98.401
0.80,120.43,5.315,98.401
0.80,120.43,5.315,98.401
0.80,120.43,5.315,98.401
0.80,120.43,5.315,98.401
0.80,120.43,5.315,98.401
0.80,120.43,5.315,98.401
0.80,120.43,5.315,98.401
0.81,120.43,5.315,98.401
0.81,120.43,5.315,98.401
0.81,120.43,5.315,98.401
0.81,120.43,5.315,98.401
0.81,120.43,5.315,98.401
0.82,120.43,5.315,98.401
0.82,120.43,5.315,98.401
0.82,120.43,5.315,98.400
0.82,120.43,5.315,98.400
0.82,120.43,5.315,98.401
0.82,120.43,5.315,98.401
0.83,120.43,5.315,98.400
0.83,120.43,5.315,98.400
0.83,120.43,5.315,98.401
0.83,120.43,5.315,98.401
0.83,120.43,5.315,98.401
0.83,120.43,5.315,98.401
0.83,120.43,5.315,98.401
0.84,120.43,5.315,98.401
0.84,120.43,5.315,98.401
0.84,120.43,5.315,98.401
0.84,120.43,5.315,98.401
0.84,120.43,5.315,98.401
0.85,120.43,5.315,98.401
0.85,120.43,5.315,98.401
0.85,120.43,5.315,98.401
0.85,120.43,5.315,98.401
0.85,120.43,5.315,98.401
0.85,120.43,5.315,98.401
0.85,120.43,5.315,98.400
0.86,120.43,5.315,98.400
0.86,120.43,5.315,98.400
0.86,120.43,5.315,98.400
0.86,120.43,5.315,98.400
0.86,120.43,5.315,98.400
0.87,120.43,5.315,98.400
0.87,120.43,5.315,98.400
0.87,120.43,5.315,98.400
0.87,120.43,5.315,98.401
0.87,120.43,5.315,98.401
0.87,120.43,5.315,98.401
0.88,120.43,5.315,98.401
0.88,120.43,5.315,98.400
0.88,120.43,5.315,98.400
0.88,120.43,5.315,98.400
0.88,120.43,5.315,98.400
0.88,120.43,5.315,98.400
0.88,120.43,5.315,98.400
0.89,120.43,5.315,98.400
0.89,120.43,5.315,98.400
0.89,120.43,5.315,98.400
0.89,120.43,5.315,98.401
0.89,120.43,5.315,98.401
0.90,120.43,5.315,98.401
0.90,120.43,5.315,98.401
0.90,120.43,5.315,98.401
0.90,120.43,5.315,98.401
0.90,120.43,5.315,98.401
0.90,120.43,5.315,98.401
0.90,120.43,5.315,98.401
0.91,120.43,5.315,98.401
0.91,120.43,5.315,98.400
0.91,120.43,5.315,98.400
0.91,120.43,5.315,98.400
0.91,120.43,5.315,98.400
0.92,120.43,5.315,98.400
0.92,120.43,5.315,98.401
0.92,120.43,5.315,98.401
0.92,120.43,5.315,98.401
0.92,120.43,5.315,98.401
0.92,120.43,5.315,98.401
0.93,120.43,5.315,98.401
0.93,120.43,5.315,98.401
0.93,120.43,5.315,98.401
0.93,120.43,5.315,98.401
0.93,120.43,5.315,98.401
0.93,120.43,5.315,98.401
0.93,120.43,5.315,98.401
0.94,120.43,5.315,98.401
0.94,120.43,5.315,98.401
0.94,120.43,5.315,98.401
0.94,120.43,5.315,98.401
0.94,120.43,5.315,98.401
0.95,120.43,5.315,98.401
0.95,120.43,5.315,98.402
0.95,120.43,5.315,98.402
0.95,120.43,5.315,98.402
0.95,120.43,5.315,98.402
0.95,120.43,5.315,98.402
0.95,120.43,5.315,98.401
0.96,120.43,5.315,98.401
0.96,120.43,5.315,98.401
0.96,120.43,5.315,98.402
0.96,120.43,5.315,98.402
0.96,120.43,5.315,98.402
0.97,120.43,5.315,98.402
0.97,120.43,5.315,98.402
0.97,120.43,5.315,98.402
0.97,120.43,5.315,98.402
0.97,120.43,5.315,98.402
0.97,120.43,5.315,98.402
0.98,120.43,5.315,98.402
0.98,120.43,5.315,98.402
0.98,120.43,5.315,98.402
0.98,120.43,5.315,98.401
0.98,120.43,5.315,98.401
0.98,120.43,5.315,98.401
0.98,120.43,5.315,98.401
0.99,120.43,5.315,98.401
0.99,120.43,5.315,98.401
0.99,120.43,5.315,98.402
0.99,120.43,5.315,98.402
0.99,120.43,5.315,98.402
1.00,120.43,5.315,98.402
1.00,120.43,5.315,98.402
1.00,120.43,5.315,98.402

[step]
Equilibrate 150.00 °C
Time,Temperature,Weight,Weight
min,°C,mg,%
1.00,120.43,5.315,98.402
1.00,120.43,5.315,98.407
1.00,120.43,5.325,98.583
1.00,120.43,5.362,99.278
1.01,120.43,5.382,99.654
1.01,120.43,5.402,100.017
1.01,120.43,5.418,100.314
1.01,120.43,5.430,100.528
1.01,120.43,5.439,100.707
1.02,120.43,5.449,100.891
1.02,120.43,5.456,101.015
1.02,120.43,5.459,101.075
1.02,120.43,5.462,101.130
1.02,120.43,5.464,101.172
1.02,120.43,5.464,101.170
1.03,120.43,5.464,101.166
1.03,120.43,5.466,101.200
1.03,120.43,5.467,101.220
1.03,120.44,5.467,101.221
1.03,120.44,5.467,101.212
1.03,120.44,5.467,101.218
1.03,120.44,5.469,101.248
1.04,120.45,5.469,101.250
1.04,120.45,5.468,101.238
1.04,120.46,5.468,101.247
1.04,120.46,5.469,101.259
1.04,120.47,5.468,101.243
1.05,120.48,5.467,101.218
1.05,120.48,5.467,101.212
1.05,120.49,5.468,101.235
1.05,120.50,5.469,101.253
1.05,120.51,5.469,101.259
1.05,120.52,5.469,101.264
1.05,120.53,5.469,101.252
1.06,120.54,5.468,101.238
1.06,120.55,5.468,101.239
1.06,120.57,5.468,101.245
1.06,120.58,5.469,101.248
1.06,120.60,5.469,101.258
1.07,120.62,5.469,101.265
1.07,120.63,5.469,101.259
1.07,120.65,5.469,101.255
1.07,120.67,5.469,101.258
1.07,120.70,5.469,101.258
1.07,120.72,5.469,101.260
1.08,120.74,5.470,101.267
1.08,120.77,5.470,101.274
1.08,120.80,5.470,101.275
1.08,120.82,5.470,101.272
1.08,120.85,5.470,101.270
1.08,120.88,5.470,101.270
1.08,120.92,5.470,101.273
1.09,120.95,5.470,101.274
1.09,120.98,5.470,101.273
1.09,121.02,5.470,101.274
1.09,121.06,5.470,101.276
1.09,121.10,5.470,101.275
1.09,121.14,5.470,101.275
1.10,121.18,5.470,101.277
1.10,121.22,5.470,101.281
1.10,121.27,5.470,101.284
1.10,121.31,5.471,101.285
1.10,121.36,5.471,101.285
1.11,121.41,5.471,101.285
1.11,121.46,5.471,101.285
1.11,121.51,5.471,101.285
1.11,121.56,5.471,101.285
1.11,121.61,5.471,101.285
1.11,121.67,5.471,101.285
1.12,121.72,5.471,101.285
1.12,121.78,5.471,101.285
1.12,121.84,5.470,101.282
1.12,121.90,5.470,101.280
1.12,121.96,5.470,101.280
1.12,122.02,5.470,101.281
1.13,122.09,5.470,101.279
1.13,122.15,5.470,101.276
1.13,122.21,5.470,101.275
1.13,122.28,5.470,101.274
1.13,122.35,5.470,101.274
1.13,122.42,5.470,101.274
1.13,122.48,5.470,101.273
1.14,122.55,5.470,101.271
1.14,122.62,5.470,101.271
1.14,122.70,5.470,101.270
1.14,122.77,5.470,101.269
1.14,122.84,5.470,101.269
1.14,122.92,5.470,101.269
1.15,122.99,5.470,101.269
1.15,123.07,5.470,101.268
1.15,123.14,5.470,101.267
1.15,123.22,5.470,101.266
1.15,123.30,5.469,101.265
1.16,123.38,5.469,101.265
1.16,123.46,5.469,101.265
1.16,123.53,5.469,101.265
1.16,123.61,5.469,101.265
1.16,123.70,5.469,101.264
1.16,123.78,5.469,101.262
1.17,123.86,5.469,101.261
1.17,123.94,5.469,101.261
1.17,124.02,5.469,101.262
1.17,124.11,5.469,101.262
1.17,124.19,5.469,101.261
1.17,124.27,5.469,101.261
1.18,124.36,5.469,101.260
1.18,124.44,5.469,101.260
1.18,124.53,5.469,101.259
1.18,124.61,5.469,101.259
1.18,124.70,5.469,101.258
1.18,124.79,5.469,101.258
1.18,124.87,5.469,101.257
1.19,124.96,5.469,101.256
1.19,125.05,5.469,101.256
1.19,125.13,5.469,101.255
1.19,125.22,5.469,101.255
1.19,125.31,5.469,101.255
1.19,125.40,5.469,101.255
1.20,125.48,5.469,101.254
1.20,125.57,5.469,101.254
1.20,125.66,5.469,101.253
1.20,125.75,5.469,101.253
1.20,125.84,5.469,101.253
1.21,125.93,5.469,101.253
1.21,126.01,5.469,101.253
1.21,126.10,5.469,101.252
1.21,126.19,5.469,101.252
1.21,126.28,5.469,101.252
1.21,126.37,5.469,101.251
1.22,126.46,5.469,101.251
1.22,126.55,5.469,101.251
1.22,126.64,5.469,101.250
1.22,126.73,5.469,101.250
1.22,126.81,5.469,101.249
1.22,126.90,5.469,101.249
1.23,126.99,5.469,101.248
1.23,127.08,5.469,101.248
1.23,127.17,5.468,101.247
1.23,127.26,5.468,101.247
1.23,127.35,5.468,101.246
1.23,127.44,5.468,101.246
1.23,127.52,5.468,101.245
1.24,127.61,5.468,101.245
1.24,127.70,5.468,101.245
1.24,127.79,5.468,101.245
1.24,127.88,5.468,101.245
1.24,127.96,5.468,101.244
1.24,128.05,5.468,101.244
1.25,128.14,5.468,101.243
1.25,128.23,5.468,101.242
1.25,128.31,5.468,101.242
1.25,128.40,5.468,101.241
1.25,128.49,5.468,101.241
1.26,128.57,5.468,101.241
1.26,128.66,5.468,101.240
1.26,128.75,5.468,101.239
1.26,128.83,5.468,101.239
1.26,128.92,5.468,101.238
1.26,129.00,5.468,101.238
1.27,129.09,5.468,101.238
1.27,129.17,5.468,101.237
1.27,129.26,5.468,101.237
1.27,129.34,5.468,101.236
1.27,129.43,5.468,101.235
1.27,129.51,5.468,101.235
1.28,129.60,5.468,101.235
1.28,129.68,5.468,101.234
1.28,129.76,5.468,101.234
1.28,129.85,5.468,101.234
1.28,129.93,5.468,101.233
1.28,130.01,5.468,101.233
1.28,130.09,5.468,101.232
1.29,130.18,5.468,101.231
1.29,130.26,5.468,101.231
1.29,130.34,5.468,101.230
1.29,130.42,5.468,101.230
1.29,130.50,5.468,101.229
1.29,130.58,5.467,101.229
1.30,130.66,5.467,101.228
1.30,130.74,5.467,101.228
1.30,130.82,5.467,101.227
1.30,130.90,5.467,101.227
1.30,130.98,5.467,101.227
1.31,131.06,5.467,101.226
1.31,131.14,5.467,101.225
1.31,131.21,5.467,101.225
1.31,131.29,5.467,101.225
1.31,131.37,5.467,101.224
1.31,131.45,5.467,101.224
1.32,131.52,5.467,101.223
1.32,131.60,5.467,101.223
1.32,131.68,5.467,101.222
1.32,131.75,5.467,101.221
1.32,131.83,5.467,101.221
1.32,131.90,5.467,101.221
1.33,131.98,5.467,101.220
1.33,132.05,5.467,101.220
1.33,132.13,5.467,101.219
1.33,132.20,5.467,101.219
1.33,132.27,5.467,101.219
1.33,132.35,5.467,101.219
1.33,132.42,5.467,101.218
1.34,132.49,5.467,101.218
1.34,132.56,5.467,101.217
1.34,132.64,5.467,101.217
1.34,132.71,5.467,101.216
1.34,132.78,5.467,101.216
1.34,132.85,5.467,101.215
1.35,132.92,5.467,101.215
1.35,132.99,5.467,101.214
1.35,133.06,5.467,101.213
1.35,133.13,5.467,101.213
1.35,133.20,5.467,101.213
1.36,133.27,5.467,101.212
1.36,133.34,5.467,101.212
1.36,133.41,5.467,101.211
1.36,133.48,5.467,101.211
1.36,133.55,5.466,101.210
1.36,133.62,5.466,101.210
1.37,133.69,5.466,101.210
1.37,133.75,5.466,101.209
1.37,133.82,5.466,101.209
1.37,133.89,5.466,101.209
1.37,133.96,5.466,101.208
1.37,134.02,5.466,101.208
1.38,134.09,5.466,101.208
1.38,134.16,5.466,101.207
1.38,134.22,5.466,101.207
1.38,134.29,5.466,101.206
1.38,134.36,5.466,101.206
1.38,134.42,5.466,101.205
1.38,134.49,5.466,101.205
1.39,134.55,5.466,101.204
1.39,134.62,5.466,101.204
1.39,134.68,5.466,101.203
1.39,134.75,5.466,101.203
1.39,134.81,5.466,101.203
1.39,134.88,5.466,101.202
1.40,134.94,5.466,101.202
1.40,135.00,5.466,101.201
1.40,135.07,5.466,101.201
1.40,135.13,5.466,101.201
1.40,135.20,5.466,101.200
1.41,135.26,5.466,101.200
1.41,135.32,5.466,101.200
1.41,135.39,5.466,101.199
1.41,135.45,5.466,101.199
1.41,135.51,5.466,101.199
1.41,135.57,5.466,101.198
1.42,135.64,5.466,101.197
1.42,135.70,5.466,101.197
1.42,135.76,5.466,101.196
1.42,135.82,5.466,101.196
1.42,135.89,5.466,101.196
1.42,135.95,5.466,101.195
1.43,136.01,5.466,101.195
1.43,136.07,5.466,101.195
1.43,136.13,5.466,101.194
1.43,136.19,5.466,101.194
1.43,136.25,5.466,101.194
1.43,136.32,5.466,101.193
1.43,136.38,5.466,101.193
1.44,136.44,5.466,101.192
1.44,136.50,5.466,101.192
1.44,136.56,5.466,101.192
1.44,136.62,5.465,101.191
1.44,136.68,5.465,101.191
1.44,136.74,5.465,101.190
1.45,136.80,5.465,101.190
1.45,136.86,5.465,101.189
1.45,136.92,5.465,101.189
1.45,136.97,5.465,101.188
1.45,137.03,5.465,101.188
1.46,137.09,5.465,101.187
1.46,137.15,5.465,101.187
1.46,137.21,5.465,101.186
1.46,137.27,5.465,101.186
1.46,137.33,5.465,101.185
1.46,137.39,5.465,101.185
1.47,137.44,5.465,101.185
1.47,137.50,5.465,101.184
1.47,137.56,5.465,101.184
1.47,137.62,5.465,101.183
1.47,137.67,5.465,101.182
1.47,137.73,5.465,101.182
1.48,137.79,5.465,101.182
1.48,137.84,5.465,101.182
1.48,137.90,5.465,101.182
1.48,137.96,5.465,101.181
1.48,138.01,5.465,101.181
1.48,138.07,5.465,101.180
1.48,138.13,5.465,101.180
1.49,138.18,5.465,101.179
1.49,138.24,5.465,101.178
1.49,138.29,5.465,101.178
1.49,138.35,5.465,101.178
1.49,138.40,5.465,101.177
1.49,138.46,5.465,101.177
1.50,138.51,5.465,101.177
1.50,138.57,5.465,101.176
1.50,138.62,5.465,101.176
1.50,138.68,5.465,101.176
1.50,138.73,5.465,101.176
1.51,138.78,5.465,101.176
1.51,138.84,5.465,101.176
1.51,138.89,5.465,101.175
1.51,138.94,5.465,101.175
1.51,139.00,5.465,101.174
1.51,139.05,5.465,101.174
1.52,139.10,5.465,101.174
1.52,139.15,5.465,101.174
1.52,139.21,5.465,101.174
1.52,139.26,5.464,101.173
1.52,139.31,5.464,101.173
1.52,139.36,5.464,101.173
1.53,139.41,5.464,101.173
1.53,139.46,5.464,101.172
1.53,139.51,5.464,101.172
1.53,139.57,5.464,101.172
1.53,139.62,5.464,101.171
1.53,139.67,5.464,101.171
1.53,139.72,5.464,101.171
1.54,139.77,5.464,101.170
1.54,139.82,5.464,101.169
1.54,139.87,5.464,101.169
1.54,139.91,5.464,101.169
1.54,139.96,5.464,101.168
1.54,140.01,5.464,101.168
1.55,140.06,5.464,101.168
1.55,140.11,5.464,101.167
1.55,140.16,5.464,101.167
1.55,140.21,5.464,101.166
1.55,140.25,5.464,101.166
1.56,140.30,5.464,101.166
1.56,140.35,5.464,101.165
1.56,140.40,5.464,101.165
1.56,140.44,5.464,101.164
1.56,140.49,5.464,101.164
1.56,140.54,5.464,101.163
1.57,140.58,5.464,101.163
1.57,140.63,5.464,101.162
1.57,140.67,5.464,101.162
1.57,140.72,5.464,101.161
1.57,140.77,5.464,101.161
1.57,140.81,5.464,101.161
1.58,140.86,5.464,101.161
1.58,140.90,5.464,101.160
1.58,140.95,5.464,101.160
1.58,140.99,5.464,101.160
1.58,141.03,5.464,101.159
1.58,141.08,5.464,101.158
1.58,141.12,5.464,101.158
1.59,141.17,5.464,101.157
1.59,141.21,5.464,101.156
1.59,141.25,5.464,101.156
1.59,141.29,5.464,101.155
1.59,141.34,5.463,101.155
1.59,141.38,5.463,101.154
1.60,141.42,5.463,101.154
1.60,141.46,5.463,101.154
1.60,141.51,5.463,101.154
1.60,141.55,5.463,101.153
1.60,141.59,5.463,101.153
1.61,141.63,5.463,101.153
1.61,141.67,5.463,101.153
1.61,141.71,5.463,101.152
1.61,141.75,5.463,101.152
1.61,141.79,5.463,101.151
1.61,141.83,5.463,101.151
1.62,141.87,5.463,101.151
1.62,141.91,5.463,101.150
1.62,141.95,5.463,101.150
1.62,141.99,5.463,101.149
1.62,142.03,5.463,101.148
1.62,142.07,5.463,101.148
1.63,142.11,5.463,101.147
1.63,142.15,5.463,101.147
1.63,142.19,5.463,101.147
1.63,142.23,5.463,101.146
1.63,142.26,5.463,101.146
1.63,142.30,5.463,101.146
1.63,142.34,5.463,101.146
1.64,142.38,5.463,101.145
1.64,142.42,5.463,101.145
1.64,142.45,5.463,101.145
1.64,142.49,5.463,101.144
1.64,142.53,5.463,101.144
1.64,142.56,5.463,101.144
1.65,142.60,5.463,101.143
1.65,142.64,5.463,101.143
1.65,142.67,5.463,101.142
1.65,142.71,5.463,101.142
1.65,142.74,5.463,101.141
1.66,142.78,5.463,101.141
1.66,142.82,5.463,101.140
1.66,142.85,5.463,101.140
1.66,142.89,5.463,101.140
1.66,142.92,5.463,101.140
1.66,142.96,5.463,101.140
1.67,142.99,5.463,101.140
1.67,143.02,5.463,101.139
1.67,143.06,5.463,101.139
1.67,143.09,5.463,101.139
1.67,143.13,5.463,101.138
1.67,143.16,5.463,101.138
1.68,143.19,5.463,101.138
1.68,143.23,5.463,101.137
1.68,143.26,5.463,101.137
1.68,143.29,5.463,101.136
1.68,143.33,5.462,101.136
1.68,143.36,5.462,101.135
1.68,143.39,5.462,101.135
1.69,143.43,5.462,101.135
1.69,143.46,5.462,101.134
1.69,143.49,5.462,101.134
1.69,143.52,5.462,101.134
1.69,143.56,5.462,101.133
1.69,143.59,5.462,101.133
1.70,143.62,5.462,101.133
1.70,143.65,5.462,101.132
1.70,143.68,5.462,101.132
1.70,143.71,5.462,101.132
1.70,143.74,5.462,101.132
1.71,143.77,5.462,101.132
1.71,143.81,5.462,101.132
1.71,143.84,5.462,101.131
1.71,143.87,5.462,101.131
1.71,143.90,5.462,101.131
1.71,143.93,5.462,101.130
1.72,143.96,5.462,101.130
1.72,143.99,5.462,101.130
1.72,144.02,5.462,101.129
1.72,144.05,5.462,101.129
1.72,144.08,5.462,101.129
1.72,144.11,5.462,101.128
1.73,144.14,5.462,101.128
1.73,144.16,5.462,101.127
1.73,144.19,5.462,101.127
1.73,144.22,5.462,101.126
1.73,144.25,5.462,101.126
1.73,144.28,5.462,101.126
1.73,144.31,5.462,101.126
1.74,144.34,5.462,101.126
1.74,144.37,5.462,101.125
1.74,144.39,5.462,101.125
1.74,144.42,5.462,101.125
1.74,144.45,5.462,101.124
1.74,144.48,5.462,101.124
1.75,144.50,5.462,101.123
1.75,144.53,5.462,101.123
1.75,144.56,5.462,101.123
1.75,144.59,5.462,101.123
1.75,144.61,5.462,101.123
1.76,144.64,5.462,101.122
1.76,144.67,5.462,101.122
1.76,144.69,5.462,101.122
1.76,144.72,5.462,101.122
1.76,144.75,5.462,101.122
1.76,144.77,5.462,101.121
1.77,144.80,5.462,101.121
1.77,144.83,5.462,101.121
1.77,144.85,5.462,101.121
1.77,144.88,5.462,101.120
1.77,144.90,5.462,101.120
1.77,144.93,5.462,101.120
1.78,144.95,5.462,101.119
1.78,144.98,5.462,101.119
1.78,145.01,5.462,101.119
1.78,145.03,5.462,101.118
1.78,145.06,5.462,101.118
1.78,145.08,5.462,101.118
1.78,145.11,5.461,101.118
1.79,145.13,5.461,101.117
1.79,145.15,5.461,101.117
1.79,145.18,5.461,101.117
1.79,145.20,5.461,101.116
1.79,145.23,5.461,101.116
1.79,145.25,5.461,101.116
1.80,145.28,5.461,101.115
1.80,145.30,5.461,101.115
1.80,145.32,5.461,101.115
1.80,145.35,5.461,101.115
1.80,145.37,5.461,101.114
1.81,145.39,5.461,101.114
1.81,145.42,5.461,101.114
1.81,145.44,5.461,101.113
1.81,145.46,5.461,101.113
1.81,145.49,5.461,101.112
1.81,145.51,5.461,101.112
1.82,145.53,5.461,101.112
1.82,145.56,5.461,101.112
1.82,145.58,5.461,101.112
1.82,145.60,5.461,101.111
1.82,145.62,5.461,101.111
1.82,145.65,5.461,101.111
1.83,145.67,5.461,101.111
1.83,145.69,5.461,101.111
1.83,145.71,5.461,101.110
1.83,145.73,5.461,101.110
1.83,145.76,5.461,101.109
1.83,145.78,5.461,101.109
1.83,145.80,5.461,101.109
1.84,145.82,5.461,101.109
1.84,145.84,5.461,101.108
1.84,145.86,5.461,101.108
1.84,145.88,5.461,101.108
1.84,145.90,5.461,101.107
1.84,145.93,5.461,101.107
1.85,145.95,5.461,101.106
1.85,145.97,5.461,101.106
1.85,145.99,5.461,101.106
1.85,146.01,5.461,101.105
1.85,146.03,5.461,101.105
1.86,146.05,5.461,101.105
1.86,146.07,5.461,101.105
1.86,146.09,5.461,101.104
1.86,146.11,5.461,101.104
1.86,146.13,5.461,101.103
1.86,146.15,5.461,101.103
1.87,146.17,5.461,101.102
1.87,146.19,5.461,101.102
1.87,146.21,5.461,101.102
1.87,146.23,5.461,101.102
1.87,146.25,5.461,101.101
1.87,146.27,5.461,101.101
1.88,146.29,5.461,101.101
1.88,146.31,5.461,101.101
1.88,146.32,5.461,101.101
1.88,146.34,5.461,101.100
1.88,146.36,5.461,101.100
1.88,146.38,5.461,101.100
1.88,146.40,5.460,101.099
1.89,146.42,5.460,101.099
1.89,146.44,5.460,101.098
1.89,146.46,5.460,101.098
1.89,146.47,5.460,101.098
1.89,146.49,5.460,101.097
1.89,146.51,5.460,101.097
1.90,146.53,5.460,101.097
1.90,146.55,5.460,101.096
1.90,146.56,5.460,101.096
1.90,146.58,5.460,101.096
1.90,146.60,5.460,101.096
1.91,146.62,5.460,101.096
1.91,146.63,5.460,101.096
1.91,146.65,5.460,101.096
1.91,146.67,5.460,101.095
1.91,146.69,5.460,101.095
1.91,146.70,5.460,101.095
1.92,146.72,5.460,101.094
1.92,146.74,5.460,101.094
1.92,146.76,5.460,101.094
1.92,146.77,5.460,101.093
1.92,146.79,5.460,101.093
1.92,146.81,5.460,101.093
1.93,146.82,5.460,101.092
1.93,146.84,5.460,101.092
1.93,146.86,5.460,101.091
1.93,146.87,5.460,101.091
1.93,146.89,5.460,101.091
1.93,146.91,5.460,101.091
1.93,146.92,5.460,101.090
1.94,146.94,5.460,101.090
1.94,146.95,5.460,101.090
1.94,146.97,5.460,101.090
1.94,146.99,5.460,101.089
1.94,147.00,5.460,101.089
1.94,147.02,5.460,101.089
1.95,147.03,5.460,101.088
1.95,147.05,5.460,101.088
1.95,147.06,5.460,101.088
1.95,147.08,5.460,101.087
1.95,147.09,5.460,101.087
1.96,147.11,5.460,101.086
1.96,147.13,5.460,101.086
1.96,147.14,5.460,101.086
1.96,147.16,5.460,101.086
1.96,147.17,5.460,101.086
1.96,147.19,5.460,101.085
1.97,147.20,5.460,101.085
1.97,147.22,5.460,101.085
1.97,147.23,5.460,101.085
1.97,147.24,5.460,101.084
1.97,147.26,5.460,101.084
1.97,147.27,5.460,101.084
1.98,147.29,5.460,101.084
1.98,147.30,5.460,101.084
1.98,147.32,5.460,101.084
1.98,147.33,5.460,101.084
1.98,147.35,5.460,101.084
1.98,147.36,5.460,101.083
1.98,147.37,5.460,101.083
1.99,147.39,5.460,101.083
1.99,147.40,5.460,101.083
1.99,147.42,5.460,101.083
1.99,147.43,5.460,101.082
1.99,147.44,5.460,101.082
1.99,147.46,5.460,101.082
2.00,147.47,5.460,101.081
2.00,147.48,5.460,101.081
2.00,147.50,5.460,101.081
2.00,147.51,5.460,101.081
2.00,147.52,5.460,101.081
2.01,147.54,5.459,101.081
2.01,147.55,5.459,101.080
2.01,147.56,5.459,101.080
2.01,147.58,5.459,101.079
2.01,147.59,5.459,101.079
2.01,147.60,5.459,101.079
2.02,147.62,5.459,101.079
2.02,147.63,5.459,101.079
2.02,147.64,5.459,101.079
2.02,147.65,5.459,101.078
2.02,147.67,5.459,101.078
2.02,147.68,5.459,101.078
2.03,147.69,5.459,101.079
2.03,147.71,5.459,101.078
2.03,147.72,5.459,101.078
2.03,147.73,5.459,101.078
2.03,147.74,5.459,101.078
2.03,147.75,5.459,101.078
2.03,147.77,5.459,101.078
2.04,147.78,5.459,101.078
2.04,147.79,5.459,101.077
2.04,147.80,5.459,101.077
2.04,147.82,5.459,101.077
2.04,147.83,5.459,101.076
2.04,147.84,5.459,101.076
2.05,147.85,5.459,101.076
2.05,147.86,5.459,101.076
2.05,147.87,5.459,101.076
2.05,147.89,5.459,101.075
2.05,147.90,5.459,101.075
2.06,147.91,5.459,101.075
2.06,147.92,5.459,101.075
2.06,147.93,5.459,101.075
2.06,147.94,5.459,101.074
2.06,147.96,5.459,101.074
2.06,147.97,5.459,101.074
2.07,147.98,5.459,101.074
2.07,147.99,5.459,101.073
2.07,148.00,5.459,101.073
2.07,148.01,5.459,101.073
2.07,148.02,5.459,101.073
2.07,148.03,5.459,101.073
2.08,148.04,5.459,101.072
2.08,148.06,5.459,101.072
2.08,148.07,5.459,101.071
2.08,148.08,5.459,101.071
2.08,148.09,5.459,101.071
2.08,148.10,5.459,101.071
2.08,148.11,5.459,101.071
2.09,148.12,5.459,101.071
2.09,148.13,5.459,101.071
2.09,148.14,5.459,101.070
2.09,148.15,5.459,101.070
2.09,148.16,5.459,101.069
2.09,148.17,5.459,101.069
2.10,148.18,5.459,101.069
2.10,148.19,5.459,101.069
2.10,148.20,5.459,101.068
2.10,148.21,5.459,101.068
2.10,148.22,5.459,101.068
2.11,148.23,5.459,101.068
2.11,148.24,5.459,101.068
2.11,148.25,5.459,101.067
2.11,148.26,5.459,101.067
2.11,148.27,5.459,101.066
2.11,148.28,5.459,101.066
2.12,148.29,5.459,101.066
2.12,148.30,5.459,101.066
2.12,148.31,5.459,101.066
2.12,148.32,5.459,101.066
2.12,148.33,5.459,101.065
2.12,148.34,5.459,101.065
2.13,148.35,5.459,101.065
2.13,148.36,5.459,101.065
2.13,148.37,5.459,101.064
2.13,148.38,5.459,101.064
2.13,148.39,5.459,101.064
2.13,148.40,5.459,101.064
2.14,148.41,5.459,101.064
2.14,148.42,5.459,101.063
2.14,148.42,5.459,101.063
2.14,148.43,5.459,101.063
2.14,148.44,5.459,101.063
2.14,148.45,5.459,101.062
2.14,148.46,5.458,101.062
2.15,148.47,5.458,101.062
2.15,148.48,5.458,101.061
2.15,148.49,5.458,101.061
2.15,148.50,5.458,101.061
2.15,148.50,5.458,101.060
2.16,148.51,5.458,101.060
2.16,148.52,5.458,101.060
2.16,148.53,5.458,101.060
2.16,148.54,5.458,101.060
2.16,148.55,5.458,101.059
2.16,148.56,5.458,101.059
2.16,148.56,5.458,101.060
2.17,148.57,5.458,101.060
2.17,148.58,5.458,101.060
2.17,148.59,5.458,101.059
2.17,148.60,5.458,101.059
2.17,148.61,5.458,101.059
2.18,148.61,5.458,101.059
2.18,148.62,5.458,101.059
2.18,148.63,5.458,101.059
2.18,148.64,5.458,101.059
2.18,148.65,5.458,101.059
2.18,148.66,5.458,101.058
2.19,148.66,5.458,101.058
2.19,148.67,5.458,101.058
2.19,148.68,5.458,101.057
2.19,148.69,5.458,101.057
2.19,148.70,5.458,101.056
2.19,148.70,5.458,101.056
2.19,148.71,5.458,101.055
2.20,148.72,5.458,101.055
2.20,148.73,5.458,101.055
2.20,148.73,5.458,101.055
2.20,148.74,5.458,101.055
2.20,148.75,5.458,101.055
2.21,148.76,5.458,101.054
2.21,148.76,5.458,101.054
2.21,148.77,5.458,101.054
2.21,148.78,5.458,101.054
2.21,148.79,5.458,101.054
2.21,148.79,5.458,101.053
2.21,148.80,5.458,101.053
2.22,148.81,5.458,101.053
2.22,148.82,5.458,101.053
2.22,148.82,5.458,101.052
2.22,148.83,5.458,101.052
2.22,148.84,5.458,101.052
2.23,148.84,5.458,101.052
2.23,148.85,5.458,101.052
2.23,148.86,5.458,101.052
2.23,148.87,5.458,101.051
2.23,148.87,5.458,101.051
2.23,148.88,5.458,101.051
2.24,148.89,5.458,101.051
2.24,148.89,5.458,101.051
2.24,148.90,5.458,101.051
2.24,148.91,5.458,101.050
2.24,148.91,5.458,101.050
2.24,148.92,5.458,101.050
2.24,148.93,5.458,101.049
2.25,148.93,5.458,101.049
2.25,148.94,5.458,101.049
2.25,148.95,5.458,101.049
2.25,148.95,5.458,101.049
2.25,148.96,5.458,101.049
2.26,148.97,5.458,101.049
2.26,148.97,5.458,101.049
2.26,148.98,5.458,101.049
2.26,148.99,5.458,101.048
2.26,148.99,5.458,101.048
2.26,149.00,5.458,101.048
2.26,149.01,5.458,101.048
2.27,149.01,5.458,101.048
2.27,149.02,5.458,101.047
2.27,149.03,5.458,101.047
2.27,149.03,5.458,101.047
2.27,149.04,5.458,101.046
2.28,149.04,5.458,101.046
2.28,149.05,5.458,101.046
2.28,149.06,5.458,101.046
2.28,149.06,5.458,101.045
2.28,149.07,5.458,101.045
2.28,149.08,5.458,101.045
2.29,149.08,5.458,101.045
2.29,149.09,5.458,101.045
2.29,149.09,5.458,101.045
2.29,149.10,5.458,101.045
2.29,149.11,5.458,101.044
2.29,149.11,5.458,101.044
2.29,149.12,5.458,101.044
2.30,149.12,5.457,101.044
2.30,149.13,5.457,101.044
2.30,149.13,5.457,101.043
2.30,149.14,5.457,101.043
2.30,149.15,5.457,101.043
2.31,149.15,5.457,101.042
2.31,149.16,5.457,101.042
2.31,149.16,5.457,101.042
2.31,149.17,5.457,101.041
2.31,149.17,5.457,101.041
2.31,149.18,5.457,101.041
2.31,149.18,5.457,101.041
2.32,149.19,5.457,101.041
2.32,149.20,5.457,101.041
2.32,149.20,5.457,101.040
2.32,149.21,5.457,101.040
2.32,149.21,5.457,101.040
2.33,149.22,5.457,101.040
2.33,149.22,5.457,101.040
2.33,149.23,5.457,101.040
2.33,149.23,5.457,101.039
2.33,149.24,5.457,101.039
2.33,149.24,5.457,101.039
2.34,149.25,5.457,101.039
2.34,149.25,5.457,101.038
2.34,149.26,5.457,101.038
2.34,149.26,5.457,101.037
2.34,149.27,5.457,101.037
2.34,149.28,5.457,101.037
2.34,149.28,5.457,101.037
2.35,149.29,5.457,101.037
2.35,149.29,5.457,101.036
2.35,149.30,5.457,101.036
2.35,149.30,5.457,101.036
2.35,149.31,5.457,101.036
2.36,149.31,5.457,101.036
2.36,149.31,5.457,101.036
2.36,149.32,5.457,101.035
2.36,149.32,5.457,101.035
2.36,149.33,5.457,101.035
2.36,149.33,5.457,101.034
2.36,149.34,5.457,101.034
2.37,149.34,5.457,101.034
2.37,149.35,5.457,101.034
[...]
40.12,99.62,5.445,100.807,-0.0383362
40.13,99.62,5.445,100.807,0.0153526
40.13,99.62,5.445,100.807,0.0454875
40.13,99.62,5.445,100.807,0.0405624
40.13,99.62,5.445,100.807,0.0216179
40.13,99.61,5.445,100.807,-9.25028e-3
40.13,99.61,5.445,100.807,-0.0470667
40.14,99.61,5.445,100.807,-0.0755752
40.14,99.61,5.445,100.807,-0.0885486
40.14,99.61,5.445,100.807,-0.0630267
40.14,99.60,5.445,100.807,-0.0285100
40.14,99.60,5.445,100.807,-0.0213273
40.14,99.60,5.445,100.807,-0.0223253
40.14,99.60,5.445,100.808,-0.0258071
40.15,99.60,5.445,100.808,-0.0312401
40.15,99.59,5.445,100.808,-0.0475519
40.15,99.59,5.445,100.808,-0.0621647
40.15,99.59,5.445,100.808,-0.0337064
40.15,99.59,5.445,100.808,0.0163572
40.16,99.59,5.445,100.808,0.0595169
40.16,99.59,5.445,100.808,0.0853153
40.16,99.58,5.445,100.808,0.0738775
40.16,99.58,5.445,100.807,0.0566185
40.16,99.58,5.445,100.807,0.0503652
40.16,99.58,5.445,100.807,0.0431473
40.16,99.58,5.445,100.807,0.0240521
40.17,99.58,5.445,100.807,-0.0163042
40.17,99.57,5.445,100.807,-0.0579914
40.17,99.57,5.445,100.807,-0.0771113
40.17,99.57,5.445,100.807,-0.0580338
40.17,99.57,5.445,100.808,-0.0212272
40.18,99.57,5.445,100.808,-2.34898e-3
40.18,99.57,5.445,100.807,-0.0115087
40.18,99.56,5.445,100.808,-0.0406343
40.18,99.56,5.445,100.808,-0.0549111
40.18,99.56,5.445,100.808,-0.0248964
40.18,99.56,5.445,100.808,7.63245e-3
40.19,99.56,5.445,100.808,7.77072e-3
40.19,99.56,5.445,100.808,4.39942e-3
40.19,99.55,5.445,100.808,0.0102013
40.19,99.55,5.445,100.808,5.94238e-3
40.19,99.55,5.445,100.808,-0.0123010
40.19,99.55,5.445,100.808,-0.0395280
40.19,99.55,5.445,100.808,-0.0640927
40.20,99.55,5.445,100.808,-0.0659767
40.20,99.54,5.445,100.808,-0.0618696
40.20,99.54,5.445,100.808,-0.0659494
40.20,99.54,5.445,100.808,-0.0654336
40.20,99.54,5.445,100.808,-0.0632673
40.21,99.54,5.445,100.808,-0.0648331
40.21,99.54,5.445,100.808,-0.0467359
40.21,99.54,5.445,100.809,-5.46161e-3
40.21,99.53,5.445,100.809,0.0289681
40.21,99.53,5.445,100.808,0.0346912
40.21,99.53,5.445,100.808,0.0153537
40.21,99.53,5.445,100.808,-1.10489e-3
40.22,99.53,5.445,100.808,1.04424e-3
40.22,99.53,5.445,100.808,6.39829e-5
40.22,99.53,5.445,100.808,-0.0233227
40.22,99.52,5.445,100.808,-0.0332201
40.22,99.52,5.445,100.809,-0.0182232
40.23,99.52,5.445,100.809,-0.0164839
40.23,99.52,5.445,100.808,-0.0348842
40.23,99.52,5.445,100.809,-0.0456869
40.23,99.52,5.445,100.809,-0.0101076
40.23,99.52,5.445,100.809,0.0497068
40.23,99.52,5.445,100.809,0.0740079
40.24,99.51,5.445,100.808,0.0449237
40.24,99.51,5.445,100.808,4.90439e-3
40.24,99.51,5.445,100.808,-0.0151265
40.24,99.51,5.445,100.808,1.73684e-3
40.24,99.51,5.445,100.808,0.0500527
40.24,99.51,5.445,100.808,0.0892916
40.24,99.51,5.445,100.808,0.106991
40.25,99.51,5.445,100.808,0.0960014
40.25,99.50,5.445,100.808,0.0644691
40.25,99.50,5.445,100.808,0.0438936
40.25,99.50,5.445,100.808,0.0237655
40.25,99.50,5.445,100.808,-0.0256591
40.26,99.50,5.445,100.808,-0.0864734
40.26,99.50,5.445,100.808,-0.144738
40.26,99.50,5.445,100.808,-0.153412
40.26,99.50,5.445,100.808,-0.0823949
40.26,99.50,5.445,100.809,0.0147136
40.26,99.49,5.445,100.808,0.0741415
40.26,99.49,5.445,100.808,0.0686275
40.27,99.49,5.445,100.808,0.0389339
40.27,99.49,5.445,100.808,0.0116391
40.27,99.49,5.445,100.808,-0.0164194
40.27,99.49,5.445,100.808,-0.0386889
40.27,99.49,5.445,100.808,-0.0545963
40.28,99.49,5.445,100.808,-0.0333458
40.28,99.49,5.445,100.808,-7.46581e-4
40.28,99.48,5.445,100.808,9.33666e-3
40.28,99.48,5.445,100.808,0.0180193
40.28,99.48,5.445,100.808,0.0377044
40.28,99.48,5.445,100.808,0.0695112
40.29,99.48,5.445,100.808,0.0993346
40.29,99.48,5.445,100.808,0.114109
40.29,99.48,5.445,100.808,0.136720
40.29,99.48,5.445,100.808,0.162552
40.29,99.48,5.445,100.808,0.162973
40.29,99.47,5.445,100.807,0.136998
40.29,99.47,5.445,100.807,0.0834055
40.30,99.47,5.445,100.807,0.0458867
40.30,99.47,5.445,100.807,0.0414681
40.30,99.47,5.445,100.807,0.0488876
40.30,99.47,5.445,100.807,0.0476560
40.30,99.47,5.445,100.807,0.0416038
40.31,99.47,5.445,100.807,0.0436453
40.31,99.47,5.445,100.807,0.0327235
40.31,99.47,5.445,100.807,0.0223340
40.31,99.47,5.445,100.807,0.0414714
40.31,99.46,5.445,100.807,0.0846053
40.31,99.46,5.445,100.807,0.111530
40.31,99.46,5.445,100.807,0.103412
40.32,99.46,5.445,100.807,0.0728765
40.32,99.46,5.445,100.807,0.0331492
40.32,99.46,5.445,100.807,-9.46357e-3
40.32,99.46,5.445,100.807,-0.0539094
40.32,99.46,5.445,100.807,-0.0697812
40.33,99.46,5.445,100.807,-0.0533244
40.33,99.46,5.445,100.807,-0.0336075
40.33,99.46,5.445,100.807,-0.0393210
40.33,99.45,5.445,100.807,-0.0323879
40.33,99.45,5.445,100.807,0.0118893
40.33,99.45,5.445,100.807,0.0450254
40.34,99.45,5.445,100.807,0.0153635
40.34,99.45,5.445,100.807,-0.0648263
40.34,99.45,5.445,100.807,-0.0976166
40.34,99.45,5.445,100.807,-0.0510347
40.34,99.45,5.445,100.807,-6.84886e-3
40.34,99.45,5.445,100.807,-0.0471693
40.34,99.45,5.445,100.807,-0.123566
40.35,99.45,5.445,100.807,-0.130877
40.35,99.45,5.445,100.807,-0.0329189
40.35,99.45,5.445,100.807,0.0845179
40.35,99.44,5.445,100.807,0.149696
40.35,99.44,5.445,100.807,0.140647
40.36,99.44,5.445,100.807,0.0869982
40.36,99.44,5.445,100.807,0.0529710
40.36,99.44,5.445,100.807,0.0414616
40.36,99.44,5.445,100.807,0.0642734
40.36,99.44,5.445,100.807,0.0971420
40.36,99.44,5.445,100.807,0.0610466
40.36,99.44,5.445,100.807,-0.0500842
40.37,99.44,5.445,100.807,-0.166982
40.37,99.44,5.445,100.807,-0.235179
40.37,99.44,5.445,100.807,-0.204416
40.37,99.44,5.445,100.807,-0.100120
40.37,99.44,5.445,100.807,0.0187907
40.38,99.43,5.445,100.807,0.0927336
40.38,99.43,5.445,100.807,0.100137
40.38,99.43,5.445,100.807,0.0571884
40.38,99.43,5.445,100.807,0.0440582
40.38,99.43,5.445,100.807,0.126513
40.38,99.43,5.445,100.807,0.247277
40.39,99.43,5.445,100.807,0.292371
40.39,99.43,5.445,100.806,0.208960
40.39,99.43,5.445,100.806,0.122900
40.39,99.43,5.445,100.806,0.0928611
40.39,99.43,5.445,100.806,0.0334642
40.39,99.43,5.445,100.806,-0.103804
40.39,99.43,5.445,100.806,-0.284011
40.40,99.43,5.445,100.807,-0.352805
40.40,99.43,5.445,100.807,-0.248793
40.40,99.43,5.445,100.807,-0.123936
40.40,99.43,5.445,100.807,-0.0895099
40.40,99.42,5.445,100.807,-0.110973
40.41,99.42,5.445,100.807,-0.0575888
40.41,99.42,5.445,100.807,0.0442958
40.41,99.42,5.445,100.807,0.118711
40.41,99.42,5.445,100.807,0.169480
40.41,99.42,5.445,100.807,0.112869
40.41,99.42,5.445,100.807,0.0260932
40.41,99.42,5.445,100.807,-0.0285275
40.42,99.42,5.445,100.807,-0.0820012
40.42,99.42,5.445,100.807,-0.110841
40.42,99.42,5.445,100.807,-0.134898
40.42,99.42,5.445,100.807,-0.161687
40.42,99.42,5.445,100.807,-0.168760
40.43,99.42,5.445,100.807,-0.150259
40.43,99.42,5.445,100.807,-0.115174
40.43,99.42,5.445,100.807,-0.0851362
40.43,99.42,5.445,100.807,-0.0447541
40.43,99.42,5.445,100.807,0.0465265
40.43,99.42,5.445,100.807,0.147988
40.44,99.42,5.445,100.807,0.193648
40.44,99.41,5.445,100.807,0.139120
40.44,99.41,5.445,100.807,0.0403918
40.44,99.41,5.445,100.807,-0.0114212
40.44,99.41,5.445,100.807,0.0173364
40.44,99.41,5.445,100.807,0.0390937
40.44,99.41,5.445,100.807,0.0197993
40.45,99.41,5.445,100.807,0.0140227
40.45,99.41,5.445,100.807,0.0163674
40.45,99.41,5.445,100.807,0.0165447
40.45,99.41,5.445,100.807,0.0751068
40.45,99.41,5.445,100.807,0.213065
40.46,99.41,5.445,100.807,0.376198
40.46,99.41,5.445,100.807,0.539395
40.46,99.41,5.445,100.807,0.600408
40.46,99.41,5.445,100.806,0.462942
40.46,99.41,5.445,100.806,0.254203
40.46,99.41,5.445,100.806,0.0818521
40.46,99.41,5.445,100.806,-0.0975059
40.47,99.41,5.445,100.806,-0.262984
40.47,99.41,5.445,100.806,-0.434893
40.47,99.41,5.445,100.807,-0.638083
40.47,99.41,5.445,100.807,-0.701322
40.47,99.41,5.445,100.807,-0.600685
40.48,99.41,5.445,100.807,-0.312771
40.48,99.41,5.445,100.807,0.102301
40.48,99.41,5.445,100.807,0.435046
40.48,99.41,5.445,100.807,0.476550
40.48,99.41,5.445,100.807,0.148407
40.48,99.41,5.445,100.807,-0.428238
40.49,99.41,5.445,100.807,-0.912518
40.49,99.41,5.445,100.807,-0.927590
40.49,99.40,5.445,100.807,-0.460663
40.49,99.40,5.445,100.807,0.0802486
40.49,99.40,5.445,100.807,0.291416
40.49,99.40,5.445,100.807,0.133058
40.49,99.40,5.445,100.807,-0.195066
40.50,99.40,5.445,100.807,-0.471575
40.50,99.40,5.445,100.807,-0.433244
40.50,99.40,5.445,100.808,0.0698587
40.50,99.40,5.445,100.807,0.863047
40.50,99.40,5.445,100.807,1.38516
40.51,99.40,5.445,100.807,1.13242
40.51,99.40,5.445,100.807,0.274723
40.51,99.40,5.445,100.807,-0.553671
40.51,99.40,5.445,100.807,-0.812500
40.51,99.40,5.445,100.807,-0.371326
40.51,99.40,5.445,100.807,0.0479716
40.51,99.40,5.445,100.807,-0.344213
40.52,99.40,5.445,100.807,-1.47306
40.52,99.40,5.445,100.807,-2.62532
40.52,99.40,5.445,100.808,-2.57992
40.52,99.40,5.445,100.808,-1.05372
40.52,99.40,5.445,100.808,0.579106
40.53,99.40,5.445,100.808,1.48882
40.53,99.40,5.445,100.808,1.56098
40.53,99.40,5.445,100.808,1.46893
40.53,99.40,5.445,100.807,1.47273
40.53,99.40,5.445,100.807,1.52332
40.53,99.40,5.445,100.807,1.68647
40.54,99.40,5.445,100.807,1.65501
40.54,99.40,5.445,100.807,0.792197
40.54,99.40,5.445,100.807,-0.871520
40.54,99.40,5.445,100.807,-3.57143
40.54,99.40,5.445,100.807,-6.48663
40.54,99.40,5.445,100.808,-8.32524
40.54,99.40,5.445,100.808,-9.87234
40.55,99.40,5.445,100.808,-5.55882
40.55,99.40,5.445,100.808,3.55357
40.55,99.40,5.445,100.808,-2.16477
40.55,99.40,5.445,100.808,-4.52532
40.55,99.40,5.445,100.808,-2.77186
40.56,99.40,5.445,100.808,0.461916
40.56,99.40,5.445,100.808,1.56004
40.56,99.40,5.445,100.808,0.559084
40.56,99.40,5.445,100.808,-1.17870
40.56,99.40,5.445,100.808,-1.85681
40.56,99.40,5.445,100.808,-0.484099
40.56,99.40,5.445,100.807,1.38306
40.57,99.40,5.445,100.808,2.52935
40.57,99.40,5.445,100.808,2.68418
40.57,99.40,5.445,100.808,1.96897
40.57,99.40,5.445,100.808,0.926408
40.57,99.40,5.445,100.808,0.426393
40.58,99.40,5.445,100.808,0.293444
40.58,99.40,5.445,100.808,0.185279
40.58,99.40,5.445,100.808,0.341348
40.58,99.40,5.445,100.808,0.437227
40.58,99.40,5.445,100.808,0.0561050
40.58,99.40,5.445,100.809,-0.484630
40.59,99.40,5.445,100.808,-0.597703
40.59,99.40,5.445,100.808,0.128805
40.59,99.40,5.445,100.808,1.20878
40.59,99.40,5.445,100.809,1.76887
40.59,99.40,5.445,100.809,1.65295
40.59,99.40,5.445,100.809,1.16826
40.59,99.40,5.445,100.809,0.785835
40.60,99.40,5.445,100.809,0.554252
40.60,99.40,5.445,100.809,0.377906
40.60,99.40,5.445,100.809,0.272316
40.60,99.40,5.445,100.809,0.0156420
40.60,99.40,5.445,100.809,-0.447236
40.61,99.40,5.445,100.809,-1.08737
40.61,99.40,5.445,100.809,-1.53122
40.61,99.40,5.445,100.809,-1.46193
40.61,99.40,5.445,100.808,-0.882756
40.61,99.41,5.445,100.808,-0.142005
40.61,99.41,5.445,100.808,0.310742
40.61,99.41,5.445,100.809,0.382395
40.62,99.41,5.445,100.809,0.223776
40.62,99.41,5.445,100.809,0.0517006
40.62,99.41,5.445,100.809,-0.0160000
40.62,99.41,5.445,100.809,0.0360000
40.62,99.41,5.445,100.809,0.119261
40.63,99.41,5.445,100.809,0.0619695
40.63,99.41,5.445,100.809,-0.152121
40.63,99.41,5.445,100.809,-0.452063
40.63,99.41,5.445,100.808,-0.739143
40.63,99.41,5.445,100.808,-0.854627
40.63,99.41,5.445,100.808,-0.693279
40.64,99.41,5.445,100.808,-0.271576
40.64,99.41,5.445,100.808,0.156292
40.64,99.41,5.445,100.808,0.364072
40.64,99.41,5.445,100.808,0.333687
40.64,99.41,5.445,100.808,0.122995
40.64,99.41,5.445,100.808,-0.0429286
40.64,99.41,5.445,100.808,-0.0810756
40.65,99.41,5.445,100.808,-0.0358107
40.65,99.41,5.445,100.808,-0.104618
40.65,99.41,5.445,100.808,-0.324915
40.65,99.41,5.445,100.808,-0.520390
40.65,99.41,5.445,100.808,-0.583928
40.66,99.41,5.445,100.808,-0.496774
40.66,99.41,5.445,100.808,-0.284423
40.66,99.41,5.445,100.808,-0.0248642
40.66,99.41,5.445,100.808,0.137550
40.66,99.41,5.445,100.808,0.0791075
40.66,99.41,5.445,100.808,-0.0641143
40.66,99.41,5.445,100.808,0.0807299
40.67,99.41,5.445,100.808,0.457659
40.67,99.41,5.445,100.808,0.672409
40.67,99.41,5.445,100.808,0.492919
40.67,99.41,5.445,100.808,0.0346394
40.67,99.41,5.445,100.808,-0.305201
40.68,99.41,5.445,100.808,-0.347186
40.68,99.41,5.445,100.808,-0.178979
40.68,99.41,5.445,100.808,0.0305004
40.68,99.41,5.445,100.808,0.152238
40.68,99.41,5.445,100.808,0.203093
40.68,99.41,5.445,100.808,0.236341
40.69,99.41,5.445,100.808,0.271224
40.69,99.42,5.445,100.808,0.175877
40.69,99.42,5.445,100.808,0.0641201
40.69,99.42,5.445,100.808,0.122646
40.69,99.42,5.445,100.808,0.240837
40.69,99.42,5.445,100.808,0.290110
40.69,99.42,5.445,100.808,0.190142
40.70,99.42,5.445,100.808,0.0306139
40.70,99.42,5.445,100.808,-0.0951213
40.70,99.42,5.445,100.808,-0.222949
40.70,99.42,5.445,100.808,-0.366122
40.70,99.42,5.445,100.808,-0.268751
40.71,99.42,5.445,100.808,0.131128
40.71,99.42,5.445,100.808,0.515968
40.71,99.42,5.445,100.809,0.643838
40.71,99.42,5.445,100.809,0.414301
40.71,99.42,5.445,100.809,-0.0233222
40.71,99.42,5.445,100.809,-0.397459
40.71,99.42,5.445,100.808,-0.655264
40.72,99.42,5.445,100.808,-0.734165
40.72,99.42,5.445,100.808,-0.693103
40.72,99.42,5.445,100.808,-0.678523
40.72,99.42,5.445,100.808,-0.627701
40.72,99.42,5.445,100.807,-0.413417
40.73,99.42,5.445,100.807,-0.0696764
40.73,99.42,5.445,100.807,0.305700
40.73,99.42,5.445,100.808,0.581888
40.73,99.42,5.445,100.808,0.614439
40.73,99.42,5.445,100.808,0.518680
40.73,99.42,5.445,100.808,0.394480
40.74,99.42,5.445,100.808,0.279115
40.74,99.42,5.445,100.808,0.313165
40.74,99.42,5.445,100.808,0.460658
40.74,99.42,5.445,100.808,0.543748
40.74,99.42,5.445,100.809,0.445815
40.74,99.42,5.445,100.809,0.124390
40.74,99.43,5.445,100.809,-0.217073
40.75,99.43,5.445,100.809,-0.297936
40.75,99.43,5.445,100.809,-0.173736
40.75,99.43,5.445,100.809,-0.0447169
40.75,99.43,5.445,100.809,-0.0774505
40.75,99.43,5.445,100.809,-0.181395
40.76,99.43,5.445,100.808,-0.0767442
40.76,99.43,5.445,100.808,0.183604
40.76,99.43,5.445,100.809,0.371252
40.76,99.43,5.445,100.809,0.327504
40.76,99.43,5.445,100.809,0.229322
40.76,99.43,5.445,100.809,0.368372
40.76,99.43,5.445,100.809,0.700000
40.77,99.43,5.445,100.809,0.829545
40.77,99.43,5.445,100.810,0.491636
40.77,99.43,5.445,100.810,-0.0862242
40.77,99.43,5.445,100.810,-0.529275
40.77,99.43,5.445,100.809,-0.674707
40.78,99.43,5.445,100.809,-0.625295
40.78,99.43,5.445,100.809,-0.524723
40.78,99.43,5.445,100.809,-0.470957
40.78,99.43,5.445,100.809,-0.453992
40.78,99.43,5.445,100.808,-0.418759
40.78,99.43,5.445,100.808,-0.303870
40.79,99.43,5.445,100.808,-0.0859454
40.79,99.43,5.445,100.808,0.109330
40.79,99.43,5.445,100.808,0.242812
40.79,99.43,5.445,100.808,0.295727
40.79,99.43,5.445,100.808,0.341191
40.79,99.44,5.445,100.809,0.505382
40.79,99.44,5.445,100.809,0.719014
40.80,99.44,5.445,100.809,0.867762
40.80,99.44,5.445,100.810,0.841866
40.80,99.44,5.445,100.810,0.580516
40.80,99.44,5.445,100.810,0.164577
40.80,99.44,5.445,100.810,-0.305182
40.81,99.44,5.445,100.810,-0.722323
40.81,99.44,5.445,100.809,-0.914507
40.81,99.44,5.445,100.809,-0.821633
40.81,99.44,5.445,100.809,-0.550530
40.81,99.44,5.445,100.808,-0.262205
40.81,99.44,5.445,100.808,-0.0982897
40.81,99.44,5.445,100.808,0.0245283
40.82,99.44,5.445,100.808,0.192713
40.82,99.44,5.445,100.809,0.287857
40.82,99.44,5.445,100.809,0.258786
40.82,99.44,5.445,100.809,0.153197
40.82,99.44,5.445,100.809,0.105249
40.83,99.44,5.445,100.809,0.199042
40.83,99.44,5.445,100.809,0.252055
40.83,99.44,5.445,100.809,0.181532
40.83,99.44,5.445,100.809,0.112917
40.83,99.44,5.445,100.809,0.103636
40.83,99.44,5.445,100.809,0.0909091
40.84,99.45,5.445,100.809,-0.0309091
40.84,99.45,5.445,100.809,-0.133502
40.84,99.45,5.445,100.809,-0.0664099
40.84,99.45,5.445,100.809,0.0893961
40.84,99.45,5.445,100.809,0.175537
40.84,99.45,5.445,100.809,0.0886965
40.84,99.45,5.445,100.809,-0.0618997
40.85,99.45,5.445,100.809,-0.103851
40.85,99.45,5.445,100.809,-0.0526566
40.85,99.45,5.445,100.809,-0.0424124
40.85,99.45,5.445,100.809,-0.0948731
40.85,99.45,5.445,100.809,-0.114323
40.86,99.45,5.445,100.809,-0.0755307
40.86,99.45,5.445,100.809,0.0484215
40.86,99.45,5.445,100.809,0.162029
40.86,99.45,5.445,100.809,0.201461
40.86,99.45,5.445,100.809,0.234725
40.86,99.45,5.445,100.809,0.186825
40.86,99.45,5.445,100.810,0.0802713
40.87,99.45,5.445,100.810,-0.0719419
40.87,99.45,5.445,100.809,-0.196717
40.87,99.45,5.445,100.809,-0.210142
40.87,99.46,5.445,100.809,-0.179168
40.87,99.46,5.445,100.809,-0.147513
40.88,99.46,5.445,100.809,-0.170243
40.88,99.46,5.445,100.809,-0.191337
40.88,99.46,5.445,100.809,-0.151980
40.88,99.46,5.445,100.809,-0.0408575
40.88,99.46,5.445,100.809,0.0685144
40.88,99.46,5.445,100.809,0.137541
40.89,99.46,5.445,100.809,0.262595
40.89,99.46,5.445,100.809,0.376294
40.89,99.46,5.445,100.809,0.399468
40.89,99.46,5.445,100.810,0.255797
40.89,99.46,5.445,100.810,9.04008e-3
40.89,99.46,5.445,100.810,-0.125382
40.89,99.46,5.445,100.809,-0.142928
40.90,99.46,5.445,100.809,-0.0899904
40.90,99.46,5.445,100.809,-0.0658039
40.90,99.46,5.445,100.809,-0.126751
40.90,99.46,5.445,100.809,-0.143674
40.90,99.46,5.445,100.809,-0.0440685
40.91,99.47,5.445,100.809,0.0859337
40.91,99.47,5.445,100.809,0.152099
40.91,99.47,5.445,100.809,0.0899697
40.91,99.47,5.445,100.809,-0.0473387
40.91,99.47,5.445,100.809,-0.125287
40.91,99.47,5.445,100.809,-0.157420
40.91,99.47,5.445,100.809,-0.137025
40.92,99.47,5.445,100.809,-0.0610710
40.92,99.47,5.445,100.809,0.0326610
40.92,99.47,5.445,100.809,0.0969451
40.92,99.47,5.445,100.809,0.102512
40.92,99.47,5.445,100.809,0.105103
40.93,99.47,5.445,100.809,0.0978730
40.93,99.47,5.445,100.809,0.0638796
40.93,99.47,5.445,100.809,0.0437956
40.93,99.47,5.445,100.809,0.0648347
40.93,99.47,5.445,100.809,0.0757713
40.93,99.47,5.445,100.810,9.42520e-3
40.94,99.47,5.445,100.810,-0.0923886
40.94,99.48,5.445,100.809,-0.0708361
40.94,99.48,5.445,100.809,0.0744387
40.94,99.48,5.445,100.809,0.205556
40.94,99.48,5.445,100.810,0.225614
40.94,99.48,5.445,100.810,0.158503
40.94,99.48,5.445,100.810,0.174850
40.95,99.48,5.445,100.810,0.270041
40.95,99.48,5.445,100.810,0.307852
40.95,99.48,5.445,100.810,0.194899
40.95,99.48,5.445,100.810,-0.0236060
40.95,99.48,5.445,100.810,-0.156740
40.96,99.48,5.445,100.810,-0.0925856
40.96,99.48,5.445,100.810,0.0793386
40.96,99.48,5.445,100.810,0.169256
40.96,99.48,5.445,100.810,0.0852415
40.96,99.48,5.445,100.810,-0.0737157
40.96,99.48,5.445,100.810,-0.180962
40.96,99.48,5.445,100.810,-0.198166
40.97,99.49,5.445,100.810,-0.119789
40.97,99.49,5.445,100.810,-2.80465e-3
40.97,99.49,5.445,100.810,0.0946095
40.97,99.49,5.445,100.810,0.150314
40.97,99.49,5.445,100.810,0.105902
40.98,99.49,5.445,100.810,0.0364528
40.98,99.49,5.445,100.810,0.0404924
40.98,99.49,5.445,100.810,0.0770876
40.98,99.49,5.445,100.810,0.0743850
40.98,99.49,5.445,100.810,-0.0205165
40.98,99.49,5.445,100.810,-0.110976
40.99,99.49,5.445,100.810,-0.100864
40.99,99.49,5.445,100.810,-0.0375368
40.99,99.49,5.445,100.810,-0.0120679
40.99,99.49,5.445,100.810,-0.0469338
40.99,99.49,5.445,100.810,-0.0863807
40.99,99.49,5.445,100.810,-0.0896532
40.99,99.49,5.445,100.810,-0.0578905
41.00,99.50,5.445,100.810,0.0300792
41.00,99.50,5.445,100.810,0.179497
41.00,99.50,5.445,100.810,0.286552
41.00,99.50,5.445,100.810,0.250966
41.00,99.50,5.445,100.811,0.0879130
41.01,99.50,5.445,100.810,-0.104084
41.01,99.50,5.445,100.810,-0.240364
41.01,99.50,5.445,100.810,-0.318747
41.01,99.50,5.445,100.810,-0.298702
41.01,99.50,5.445,100.810,-0.186836
41.01,99.50,5.445,100.810,-0.0797020
41.01,99.50,5.445,100.810,-0.0305601
41.02,99.50,5.445,100.810,-9.33333e-3
41.02,99.50,5.445,100.810,8.08123e-3
41.02,99.50,5.445,100.810,-4.19496e-3
41.02,99.50,5.445,100.810,-0.0805481
41.02,99.50,5.445,100.810,-0.200518
41.03,99.51,5.445,100.809,-0.228397
41.03,99.51,5.445,100.809,-0.163375
41.03,99.51,5.445,100.809,-0.0873667
41.03,99.51,5.445,100.809,0.0179709
41.03,99.51,5.445,100.809,0.153177
41.03,99.51,5.445,100.809,0.310513
41.04,99.51,5.445,100.810,0.394516
41.04,99.51,5.445,100.810,0.325000
41.04,99.51,5.445,100.810,0.192026
41.04,99.51,5.445,100.810,0.102481
41.04,99.51,5.445,100.810,0.0866450
41.04,99.51,5.445,100.810,0.0790698
41.04,99.51,5.445,100.810,-2.33356e-3
41.05,99.51,5.445,100.810,-0.0810282
41.05,99.51,5.445,100.810,-0.136234
41.05,99.51,5.445,100.810,-0.144045