File: instrument_data/TGA/Co(phen)2(SCN)2 electromagnet RT-4001172022.csv
Filename,Co(phen)2(SCN)2 electromagnet RT-4001172022
Instrument name,5500-0566 (192.168.10.4)
Operator,Adam K
rundate,11/7/2022
Sample name,Co(phen)2(SCN)2 electromagnet RT-400
proceduresegments,Equilibrate 110.00 °C; Isothermal 1.0 min; Electromagnet On 50.0 %; Ramp 10.00 °C/min to 400.00 °C
[File Parameters]
Run date,11/7/2022 4:04:25 PM
Trios version,5.3.0.48151
Original File Name,C:\ProgramData\TA Instruments\TRIOS\Data\CH302_B3_22_AK\Co(phen)2(SCN)2 electromagnet RT-4001172022.tri
Current File Name,C:/ProgramData/TA Instruments/TRIOS/Data/CH302_B3_22_AK/Co(phen)2(SCN)2 electromagnet RT-4001172022.tri
User at run start,CH-CBWNNF3-0721\ChemLocal
[Procedure]
Procedure Name,
Sample Name,Co(phen)2(SCN)2 electromagnet RT-400
Pan Number,2
Sample Mass,5.359 mg
Pan Type,Aluminum
Comments,
Project Name,Spin Crossover
Operator,Adam K
Test,Custom
Skip Weight Stabilization,False
Sample mass pre-weigh,Not Available
Stop on Gas Flow Error,No
[Signal List]
Signal #1,Time (min)
Signal #2,Temperature (°C)
Signal #3,Weight (mg)
Signal #4,Temperature Difference (°C)
Signal #5,Sample Purge (mL/min)
Signal #6,Balance Purge (mL/min)
Signal #7,Set Point Temperature (°C)
Signal #8,Power Delivered (W)
Signal #9,Ramp Rate (°C/min)
[Configuration]
Company Name,localcc
Instrument Name,5500-0566
Instrument Type,TGA5500
Serial Number,5500-0566
IP,192.168.10.4
Location of Instrument,Olin Hall Rm 364
DisplayType,TianmaV2
Sample Interval ,0.1 s/pt
Gas 1,Nitrogen
Gas 2,Air
Selected Gas Channel,1
MTGA HiRes Licensed,Yes
[Versions]
Common IDD Version,1
Cortex Version,VER 2.1.2.60
Driver,5.0.0.6
GDM Version,1.2.1.2
TouchscreenVersion,1.0.3.1795
PCU Version,1.2.0.15
Transducer Version,1.1.0.32
[Experiment Logs]
Experiment Log Entry # 1,Equilibrate Segment 110 (C) Started
Experiment Log Entry # 3,Isothermal Segment 1 min started
Experiment Log Entry # 5,"Curie Magnet Segment enable 1, 50 %"
Experiment Log Entry # 7,Ramp Segment 10 C/min to 400 C Started
[Method Log]
Method Log Entry # 1,Equilibrate 110 °C
Method Log Entry # 2,Isothermal 1 minutes
Method Log Entry # 3,Electromagnet On 50 %
Method Log Entry # 4,(Ramp 5035) Ramp 10 °C/minute to 400 °C
[Weight Calibration]
Date Applied,7/20/2022 10:21:44 AM
Empty Pan Number,23
Empty Pan Weight,341.358 mg
Low Reference Weight Pan Number,24
Low Reference Weight,442.546 mg
High Reference Weight Pan Number,25
High Reference Weight,"1,243.774 mg"
Low Gain Meter Reading,9.9772E-006 mg/count
High Gain Meter Reading,7.9459E-005 mg/count
Low Meter Offset,31.8759 mg
High Meter Offset,613.7978 mg
[Curie Calibration]
Date Applied,8/11/2021 12:40:46 PM
Description,From 256.990 °C to 456.990 °C at 20.000°C/min
Gas Type,Nitrogen
Pan Type,Platinum (100 uL)
Source Files 1,C:\ProgramData\TA Instruments\TRIOS\Data\Nickel Calibration.tri
Source Files 2,C:\ProgramData\TA Instruments\TRIOS\Data\Alumel Calibration.tri
Measured 1,158.9083
Known 1,154.16
Measured 2,358.1255
Known 2,356.99
[step]
Isothermal 1.0 min
Time,Temperature,Weight,Weight
min,°C,mg,%
0.00,110.16,5.287,98.648
0.00,110.16,5.286,98.648
0.00,110.17,5.286,98.647
0.01,110.17,5.286,98.647
0.01,110.17,5.286,98.646
0.01,110.17,5.286,98.646
0.01,110.17,5.286,98.646
0.01,110.17,5.286,98.646
0.01,110.17,5.286,98.646
0.01,110.17,5.286,98.645
0.02,110.17,5.286,98.645
0.02,110.18,5.286,98.645
0.02,110.18,5.286,98.645
0.02,110.18,5.286,98.644
0.02,110.18,5.286,98.644
0.03,110.18,5.286,98.644
0.03,110.18,5.286,98.643
0.03,110.18,5.286,98.643
0.03,110.18,5.286,98.643
0.03,110.18,5.286,98.642
0.03,110.19,5.286,98.642
0.03,110.19,5.286,98.642
0.04,110.19,5.286,98.641
0.04,110.19,5.286,98.641
0.04,110.19,5.286,98.641
0.04,110.19,5.286,98.641
0.04,110.19,5.286,98.641
0.05,110.19,5.286,98.640
0.05,110.19,5.286,98.640
0.05,110.20,5.286,98.640
0.05,110.20,5.286,98.639
0.05,110.20,5.286,98.639
0.05,110.20,5.286,98.638
0.05,110.20,5.286,98.638
0.06,110.20,5.286,98.638
0.06,110.20,5.286,98.638
0.06,110.20,5.286,98.638
0.06,110.20,5.286,98.637
0.06,110.20,5.286,98.637
0.07,110.21,5.286,98.637
0.07,110.21,5.286,98.636
0.07,110.21,5.286,98.636
0.07,110.21,5.286,98.636
0.07,110.21,5.286,98.636
0.07,110.21,5.286,98.635
0.08,110.21,5.286,98.635
0.08,110.21,5.286,98.634
0.08,110.21,5.286,98.634
0.08,110.21,5.286,98.634
0.08,110.22,5.286,98.633
0.08,110.22,5.286,98.633
0.08,110.22,5.286,98.632
0.09,110.22,5.286,98.632
0.09,110.22,5.286,98.632
0.09,110.22,5.286,98.632
0.09,110.22,5.286,98.632
0.09,110.22,5.286,98.631
0.09,110.22,5.286,98.631
0.10,110.22,5.286,98.631
0.10,110.23,5.286,98.631
0.10,110.23,5.286,98.631
0.10,110.23,5.286,98.630
0.10,110.23,5.286,98.630
0.11,110.23,5.286,98.630
0.11,110.23,5.286,98.629
0.11,110.23,5.285,98.629
0.11,110.23,5.285,98.629
0.11,110.23,5.285,98.629
0.11,110.23,5.285,98.628
0.12,110.24,5.285,98.628
0.12,110.24,5.285,98.628
0.12,110.24,5.285,98.628
0.12,110.24,5.285,98.628
0.12,110.24,5.285,98.628
0.12,110.24,5.285,98.628
0.13,110.24,5.285,98.627
0.13,110.24,5.285,98.627
0.13,110.24,5.285,98.627
0.13,110.24,5.285,98.626
0.13,110.25,5.285,98.626
0.13,110.25,5.285,98.625
0.14,110.25,5.285,98.625
0.14,110.25,5.285,98.625
0.14,110.25,5.285,98.625
0.14,110.25,5.285,98.625
0.14,110.25,5.285,98.624
0.14,110.25,5.285,98.624
0.14,110.25,5.285,98.624
0.15,110.25,5.285,98.623
0.15,110.26,5.285,98.623
0.15,110.26,5.285,98.623
0.15,110.26,5.285,98.623
0.15,110.26,5.285,98.622
0.16,110.26,5.285,98.622
0.16,110.26,5.285,98.621
0.16,110.26,5.285,98.621
0.16,110.26,5.285,98.621
0.16,110.26,5.285,98.620
0.16,110.26,5.285,98.620
0.16,110.27,5.285,98.620
0.17,110.27,5.285,98.620
0.17,110.27,5.285,98.620
0.17,110.27,5.285,98.620
0.17,110.27,5.285,98.620
0.17,110.27,5.285,98.619
0.18,110.27,5.285,98.619
0.18,110.27,5.285,98.619
0.18,110.27,5.285,98.618
0.18,110.27,5.285,98.618
0.18,110.27,5.285,98.617
0.18,110.28,5.285,98.617
0.19,110.28,5.285,98.616
0.19,110.28,5.285,98.616
0.19,110.28,5.285,98.616
0.19,110.28,5.285,98.616
0.19,110.28,5.285,98.616
0.19,110.28,5.285,98.616
0.19,110.28,5.285,98.616
0.20,110.28,5.285,98.615
0.20,110.28,5.285,98.615
0.20,110.28,5.285,98.615
0.20,110.29,5.285,98.615
0.20,110.29,5.285,98.615
0.21,110.29,5.285,98.615
0.21,110.29,5.285,98.614
0.21,110.29,5.285,98.614
0.21,110.29,5.285,98.614
0.21,110.29,5.285,98.614
0.21,110.29,5.285,98.613
0.21,110.29,5.285,98.613
0.22,110.29,5.285,98.613
0.22,110.29,5.285,98.612
0.22,110.29,5.285,98.612
0.22,110.30,5.285,98.611
0.22,110.30,5.285,98.611
0.23,110.30,5.285,98.611
0.23,110.30,5.285,98.611
0.23,110.30,5.285,98.611
0.23,110.30,5.284,98.610
0.23,110.30,5.284,98.610
0.23,110.30,5.284,98.610
0.24,110.30,5.284,98.610
0.24,110.30,5.284,98.609
0.24,110.30,5.284,98.609
0.24,110.30,5.284,98.609
0.24,110.31,5.284,98.609
0.24,110.31,5.284,98.609
0.24,110.31,5.284,98.608
0.25,110.31,5.284,98.608
0.25,110.31,5.284,98.608
0.25,110.31,5.284,98.607
0.25,110.31,5.284,98.607
0.25,110.31,5.284,98.607
0.26,110.31,5.284,98.607
0.26,110.31,5.284,98.607
0.26,110.31,5.284,98.607
0.26,110.31,5.284,98.606
0.26,110.31,5.284,98.606
0.26,110.31,5.284,98.606
0.26,110.32,5.284,98.606
0.27,110.32,5.284,98.606
0.27,110.32,5.284,98.606
0.27,110.32,5.284,98.606
0.27,110.32,5.284,98.606
0.27,110.32,5.284,98.606
0.28,110.32,5.284,98.606
0.28,110.32,5.284,98.605
0.28,110.32,5.284,98.605
0.28,110.32,5.284,98.605
0.28,110.32,5.284,98.605
0.28,110.32,5.284,98.604
0.29,110.32,5.284,98.604
0.29,110.32,5.284,98.604
0.29,110.32,5.284,98.604
0.29,110.32,5.284,98.604
0.29,110.33,5.284,98.603
0.29,110.33,5.284,98.603
0.30,110.33,5.284,98.603
0.30,110.33,5.284,98.603
0.30,110.33,5.284,98.603
0.30,110.33,5.284,98.602
0.30,110.33,5.284,98.602
0.30,110.33,5.284,98.602
0.30,110.33,5.284,98.602
0.31,110.33,5.284,98.602
0.31,110.33,5.284,98.602
0.31,110.33,5.284,98.602
0.31,110.33,5.284,98.602
0.31,110.33,5.284,98.602
0.31,110.33,5.284,98.602
0.32,110.33,5.284,98.602
0.32,110.34,5.284,98.601
0.32,110.34,5.284,98.601
0.32,110.34,5.284,98.601
0.32,110.34,5.284,98.600
0.33,110.34,5.284,98.600
0.33,110.34,5.284,98.600
0.33,110.34,5.284,98.600
0.33,110.34,5.284,98.600
0.33,110.34,5.284,98.599
0.33,110.34,5.284,98.599
0.34,110.34,5.284,98.599
0.34,110.34,5.284,98.598
0.34,110.34,5.284,98.598
0.34,110.34,5.284,98.598
0.34,110.34,5.284,98.598
0.34,110.34,5.284,98.598
0.35,110.34,5.284,98.598
0.35,110.34,5.284,98.597
0.35,110.34,5.284,98.597
0.35,110.35,5.284,98.597
0.35,110.35,5.284,98.597
0.35,110.35,5.284,98.596
0.35,110.35,5.284,98.596
0.36,110.35,5.284,98.596
0.36,110.35,5.284,98.596
0.36,110.35,5.284,98.595
0.36,110.35,5.284,98.595
0.36,110.35,5.284,98.595
0.36,110.35,5.284,98.595
0.37,110.35,5.284,98.595
0.37,110.35,5.284,98.595
0.37,110.35,5.284,98.595
0.37,110.35,5.284,98.594
0.37,110.35,5.284,98.594
0.38,110.35,5.284,98.594
0.38,110.35,5.284,98.594
0.38,110.35,5.284,98.594
0.38,110.35,5.284,98.593
0.38,110.36,5.284,98.593
0.38,110.36,5.284,98.593
0.39,110.36,5.284,98.593
0.39,110.36,5.284,98.593
0.39,110.36,5.284,98.593
0.39,110.36,5.284,98.593
0.39,110.36,5.284,98.592
0.39,110.36,5.284,98.592
0.40,110.36,5.284,98.592
0.40,110.36,5.283,98.592
0.40,110.36,5.283,98.592
0.40,110.36,5.283,98.591
0.40,110.36,5.283,98.591
0.40,110.36,5.283,98.591
0.40,110.36,5.283,98.591
0.41,110.36,5.283,98.591
0.41,110.36,5.283,98.591
0.41,110.36,5.283,98.591
0.41,110.36,5.283,98.590
0.41,110.36,5.283,98.590
0.41,110.37,5.283,98.590
0.42,110.37,5.283,98.589
0.42,110.37,5.283,98.589
0.42,110.37,5.283,98.588
0.42,110.37,5.283,98.588
0.42,110.37,5.283,98.588
0.43,110.37,5.283,98.588
0.43,110.37,5.283,98.588
0.43,110.37,5.283,98.588
0.43,110.37,5.283,98.588
0.43,110.37,5.283,98.588
0.43,110.37,5.283,98.588
0.44,110.37,5.283,98.588
0.44,110.37,5.283,98.587
0.44,110.37,5.283,98.587
0.44,110.37,5.283,98.587
0.44,110.37,5.283,98.587
0.44,110.37,5.283,98.587
0.45,110.37,5.283,98.587
0.45,110.37,5.283,98.586
0.45,110.37,5.283,98.586
0.45,110.38,5.283,98.586
0.45,110.38,5.283,98.586
0.45,110.38,5.283,98.586
0.45,110.38,5.283,98.585
0.46,110.38,5.283,98.585
0.46,110.38,5.283,98.585
0.46,110.38,5.283,98.585
0.46,110.38,5.283,98.584
0.46,110.38,5.283,98.584
0.46,110.38,5.283,98.584
0.47,110.38,5.283,98.584
0.47,110.38,5.283,98.584
0.47,110.38,5.283,98.584
0.47,110.38,5.283,98.584
0.47,110.38,5.283,98.584
0.48,110.38,5.283,98.583
0.48,110.38,5.283,98.583
0.48,110.38,5.283,98.583
0.48,110.38,5.283,98.583
0.48,110.38,5.283,98.582
0.48,110.38,5.283,98.582
0.49,110.38,5.283,98.581
0.49,110.39,5.283,98.581
0.49,110.39,5.283,98.581
0.49,110.39,5.283,98.581
0.49,110.39,5.283,98.581
0.49,110.39,5.283,98.580
0.50,110.39,5.283,98.580
0.50,110.39,5.283,98.580
0.50,110.39,5.283,98.580
0.50,110.39,5.283,98.580
0.50,110.39,5.283,98.580
0.50,110.39,5.283,98.579
0.50,110.39,5.283,98.579
0.51,110.39,5.283,98.579
0.51,110.39,5.283,98.578
0.51,110.39,5.283,98.578
0.51,110.39,5.283,98.578
0.51,110.39,5.283,98.577
0.51,110.39,5.283,98.577
0.52,110.39,5.283,98.577
0.52,110.39,5.283,98.577
0.52,110.39,5.283,98.577
0.52,110.39,5.283,98.576
0.52,110.39,5.283,98.576
0.53,110.39,5.283,98.576
0.53,110.40,5.283,98.575
0.53,110.40,5.283,98.575
0.53,110.40,5.283,98.575
0.53,110.40,5.283,98.574
0.53,110.40,5.283,98.574
0.53,110.40,5.283,98.574
0.54,110.40,5.283,98.574
0.54,110.40,5.283,98.573
0.54,110.40,5.283,98.573
0.54,110.40,5.283,98.573
0.54,110.40,5.283,98.573
0.55,110.40,5.282,98.573
0.55,110.40,5.282,98.573
0.55,110.40,5.282,98.573
0.55,110.40,5.282,98.573
0.55,110.40,5.282,98.573
0.55,110.40,5.282,98.573
0.55,110.40,5.282,98.572
0.56,110.40,5.282,98.572
0.56,110.40,5.282,98.572
0.56,110.40,5.282,98.572
0.56,110.40,5.282,98.572
0.56,110.40,5.282,98.571
0.57,110.40,5.282,98.571
0.57,110.40,5.282,98.570
0.57,110.40,5.282,98.570
0.57,110.40,5.282,98.570
0.57,110.40,5.282,98.570
0.57,110.41,5.282,98.570
0.58,110.41,5.282,98.570
0.58,110.41,5.282,98.570
0.58,110.41,5.282,98.570
0.58,110.41,5.282,98.570
0.58,110.41,5.282,98.570
0.58,110.41,5.282,98.569
0.58,110.41,5.282,98.569
0.59,110.41,5.282,98.569
0.59,110.41,5.282,98.569
0.59,110.41,5.282,98.568
0.59,110.41,5.282,98.568
0.59,110.41,5.282,98.568
0.60,110.41,5.282,98.567
0.60,110.41,5.282,98.567
0.60,110.41,5.282,98.567
0.60,110.41,5.282,98.567
0.60,110.41,5.282,98.567
0.60,110.41,5.282,98.567
0.60,110.41,5.282,98.567
0.61,110.41,5.282,98.567
0.61,110.41,5.282,98.567
0.61,110.41,5.282,98.566
0.61,110.41,5.282,98.566
0.61,110.41,5.282,98.566
0.62,110.41,5.282,98.566
0.62,110.41,5.282,98.566
0.62,110.41,5.282,98.565
0.62,110.41,5.282,98.565
0.62,110.41,5.282,98.565
0.62,110.41,5.282,98.565
0.63,110.41,5.282,98.565
0.63,110.41,5.282,98.565
0.63,110.42,5.282,98.565
0.63,110.42,5.282,98.565
0.63,110.42,5.282,98.564
0.63,110.42,5.282,98.564
0.63,110.42,5.282,98.564
0.64,110.42,5.282,98.564
0.64,110.42,5.282,98.563
0.64,110.42,5.282,98.563
0.64,110.42,5.282,98.563
0.64,110.42,5.282,98.563
0.65,110.42,5.282,98.563
0.65,110.42,5.282,98.563
0.65,110.42,5.282,98.563
0.65,110.42,5.282,98.563
0.65,110.42,5.282,98.562
0.65,110.42,5.282,98.562
0.65,110.42,5.282,98.562
0.66,110.42,5.282,98.562
0.66,110.42,5.282,98.561
0.66,110.42,5.282,98.562
0.66,110.42,5.282,98.562
0.66,110.42,5.282,98.561
0.67,110.42,5.282,98.561
0.67,110.42,5.282,98.561
0.67,110.42,5.282,98.561
0.67,110.42,5.282,98.560
0.67,110.42,5.282,98.560
0.67,110.42,5.282,98.560
0.68,110.42,5.282,98.559
0.68,110.42,5.282,98.559
0.68,110.42,5.282,98.559
0.68,110.42,5.282,98.559
0.68,110.42,5.282,98.559
0.68,110.42,5.282,98.559
0.68,110.42,5.282,98.559
0.69,110.42,5.282,98.559
0.69,110.42,5.282,98.559
0.69,110.42,5.282,98.559
0.69,110.42,5.282,98.559
0.69,110.42,5.282,98.559
0.70,110.42,5.282,98.559
0.70,110.42,5.282,98.559
0.70,110.42,5.282,98.558
0.70,110.42,5.282,98.558
0.70,110.42,5.282,98.558
0.70,110.42,5.282,98.558
0.70,110.42,5.282,98.557
0.71,110.42,5.282,98.557
0.71,110.42,5.282,98.557
0.71,110.42,5.282,98.557
0.71,110.43,5.282,98.556
0.71,110.43,5.282,98.556
0.72,110.43,5.282,98.556
0.72,110.43,5.282,98.556
0.72,110.43,5.282,98.556
0.72,110.43,5.282,98.556
0.72,110.43,5.282,98.556
0.72,110.43,5.282,98.556
0.73,110.43,5.282,98.556
0.73,110.43,5.282,98.556
0.73,110.43,5.282,98.556
0.73,110.43,5.282,98.555
0.73,110.43,5.282,98.555
0.73,110.43,5.282,98.555
0.73,110.43,5.282,98.555
0.74,110.43,5.282,98.555
0.74,110.43,5.282,98.555
0.74,110.43,5.282,98.555
0.74,110.43,5.282,98.555
0.74,110.43,5.281,98.554
0.75,110.43,5.281,98.554
0.75,110.43,5.281,98.554
0.75,110.43,5.282,98.554
0.75,110.43,5.281,98.554
0.75,110.43,5.281,98.554
0.75,110.43,5.281,98.554
0.75,110.43,5.281,98.554
0.76,110.43,5.281,98.554
0.76,110.43,5.281,98.553
0.76,110.43,5.281,98.553
0.76,110.43,5.281,98.553
0.76,110.43,5.281,98.553
0.77,110.43,5.281,98.553
0.77,110.43,5.281,98.553
0.77,110.43,5.281,98.553
0.77,110.43,5.281,98.553
0.77,110.43,5.281,98.553
0.77,110.43,5.281,98.553
0.78,110.43,5.281,98.553
0.78,110.43,5.281,98.553
0.78,110.43,5.281,98.552
0.78,110.43,5.281,98.552
0.78,110.43,5.281,98.552
0.78,110.43,5.281,98.552
0.78,110.43,5.281,98.551
0.79,110.43,5.281,98.551
0.79,110.43,5.281,98.551
0.79,110.43,5.281,98.551
0.79,110.43,5.281,98.551
0.79,110.43,5.281,98.551
0.80,110.43,5.281,98.551
0.80,110.43,5.281,98.550
0.80,110.43,5.281,98.550
0.80,110.43,5.281,98.550
0.80,110.43,5.281,98.550
0.80,110.43,5.281,98.550
0.80,110.43,5.281,98.550
0.81,110.43,5.281,98.550
0.81,110.43,5.281,98.550
0.81,110.43,5.281,98.550
0.81,110.43,5.281,98.550
0.81,110.43,5.281,98.550
0.82,110.43,5.281,98.549
0.82,110.43,5.281,98.549
0.82,110.43,5.281,98.549
0.82,110.43,5.281,98.549
0.82,110.43,5.281,98.549
0.82,110.43,5.281,98.549
0.83,110.43,5.281,98.548
0.83,110.43,5.281,98.548
0.83,110.43,5.281,98.548
0.83,110.43,5.281,98.548
0.83,110.43,5.281,98.548
0.83,110.43,5.281,98.548
0.83,110.43,5.281,98.548
0.84,110.43,5.281,98.547
0.84,110.43,5.281,98.547
0.84,110.43,5.281,98.547
0.84,110.43,5.281,98.547
0.84,110.43,5.281,98.547
0.85,110.43,5.281,98.546
0.85,110.43,5.281,98.546
0.85,110.43,5.281,98.546
0.85,110.43,5.281,98.546
0.85,110.43,5.281,98.546
0.85,110.43,5.281,98.545
0.85,110.43,5.281,98.545
0.86,110.43,5.281,98.545
0.86,110.43,5.281,98.545
0.86,110.43,5.281,98.545
0.86,110.43,5.281,98.545
0.86,110.43,5.281,98.545
0.87,110.43,5.281,98.545
0.87,110.43,5.281,98.545
0.87,110.43,5.281,98.545
0.87,110.43,5.281,98.545
0.87,110.43,5.281,98.545
0.87,110.43,5.281,98.545
0.88,110.43,5.281,98.545
0.88,110.43,5.281,98.545
0.88,110.43,5.281,98.545
0.88,110.43,5.281,98.545
0.88,110.43,5.281,98.545
0.88,110.43,5.281,98.544
0.88,110.43,5.281,98.544
0.89,110.43,5.281,98.544
0.89,110.43,5.281,98.544
0.89,110.43,5.281,98.544
0.89,110.43,5.281,98.543
0.89,110.43,5.281,98.544
0.90,110.43,5.281,98.544
0.90,110.43,5.281,98.543
0.90,110.43,5.281,98.543
0.90,110.43,5.281,98.543
0.90,110.43,5.281,98.543
0.90,110.43,5.281,98.544
0.90,110.43,5.281,98.544
0.91,110.43,5.281,98.544
0.91,110.43,5.281,98.543
0.91,110.43,5.281,98.543
0.91,110.43,5.281,98.543
0.91,110.43,5.281,98.543
0.92,110.43,5.281,98.543
0.92,110.43,5.281,98.543
0.92,110.43,5.281,98.543
0.92,110.43,5.281,98.543
0.92,110.43,5.281,98.543
0.92,110.43,5.281,98.543
0.93,110.43,5.281,98.542
0.93,110.43,5.281,98.542
0.93,110.43,5.281,98.542
0.93,110.43,5.281,98.542
0.93,110.43,5.281,98.541
0.93,110.43,5.281,98.541
0.93,110.43,5.281,98.541
0.94,110.43,5.281,98.541
0.94,110.43,5.281,98.541
0.94,110.43,5.281,98.541
0.94,110.43,5.281,98.541
0.94,110.43,5.281,98.541
0.95,110.43,5.281,98.541
0.95,110.43,5.281,98.541
0.95,110.43,5.281,98.541
0.95,110.43,5.281,98.541
0.95,110.43,5.281,98.541
0.95,110.43,5.281,98.541
0.95,110.43,5.281,98.541
0.96,110.43,5.281,98.541
0.96,110.43,5.281,98.540
0.96,110.43,5.281,98.540
0.96,110.43,5.281,98.540
0.96,110.43,5.281,98.540
0.97,110.43,5.281,98.540
0.97,110.43,5.281,98.540
0.97,110.43,5.281,98.540
0.97,110.43,5.281,98.540
0.97,110.43,5.281,98.540
0.97,110.43,5.281,98.540
0.98,110.43,5.281,98.540
0.98,110.43,5.281,98.540
0.98,110.43,5.281,98.540
0.98,110.43,5.281,98.540
0.98,110.43,5.281,98.540
0.98,110.43,5.281,98.540
0.98,110.43,5.281,98.540
0.99,110.43,5.281,98.539
0.99,110.43,5.281,98.539
0.99,110.43,5.281,98.539
0.99,110.43,5.281,98.539
0.99,110.43,5.281,98.539
1.00,110.43,5.281,98.539
1.00,110.43,5.281,98.539
1.00,110.43,5.281,98.539

[step]
Ramp 10.00 °C/min to 400.00 °C
Time,Temperature,Weight,Weight,Deriv. Weight
min,°C,mg,%,% / °C
1.00,110.43,5.281,98.539,9.58661
1.02,110.43,5.300,98.899,-609.971
1.04,110.43,5.300,98.897,-4.62169
1.07,110.43,5.301,98.909,63.5834
1.09,110.43,5.303,98.963,-0.221495
1.11,110.45,5.302,98.939,-3.69387
1.13,110.47,5.301,98.918,-1.02697
1.15,110.50,5.300,98.896,-0.251570
1.17,110.55,5.299,98.882,-0.138609
1.19,110.61,5.298,98.868,-0.184167
1.22,110.68,5.298,98.856,-0.159265
1.24,110.77,5.297,98.847,-0.139935
1.26,110.87,5.297,98.837,-0.105308
1.28,110.98,5.296,98.828,-0.0537728
1.30,111.11,5.296,98.820,-0.0446258
1.33,111.25,5.295,98.811,-0.0628767
1.35,111.41,5.295,98.803,-0.0680690
1.37,111.58,5.295,98.798,-0.0421778
1.39,111.76,5.294,98.791,-0.0314855
1.41,111.94,5.294,98.784,-0.0167563
1.43,112.14,5.294,98.779,-0.0158940
1.46,112.34,5.293,98.774,-0.0359976
1.48,112.54,5.293,98.769,-0.0417390
1.50,112.74,5.293,98.765,-0.0153562
1.52,112.94,5.292,98.759,-0.0180794
1.54,113.15,5.292,98.755,-0.0107688
1.56,113.35,5.292,98.750,-9.00228e-3
1.58,113.56,5.292,98.748,-0.0164445
1.61,113.77,5.292,98.743,-0.0146382
1.63,113.97,5.291,98.740,-0.0193179
1.65,114.18,5.291,98.738,-7.10366e-3
1.67,114.39,5.291,98.735,-0.0205775
1.69,114.60,5.291,98.731,-0.0221111
1.72,114.82,5.291,98.728,-0.0178922
1.74,115.03,5.291,98.724,-0.0188239
1.76,115.25,5.290,98.721,-8.97235e-3
1.78,115.46,5.290,98.718,-0.0110284
1.80,115.68,5.290,98.715,-9.87924e-3
1.82,115.89,5.290,98.713,-6.34405e-3
1.84,116.11,5.290,98.712,-0.0187257
1.87,116.33,5.290,98.707,-8.15114e-3
1.89,116.54,5.290,98.705,-0.0128038
1.91,116.76,5.289,98.701,-0.0111860
1.93,116.97,5.289,98.700,-6.02392e-3
1.95,117.19,5.289,98.697,-0.0144662
1.98,117.40,5.289,98.694,-8.30781e-3
2.00,117.62,5.289,98.692,-0.0199450
2.02,117.84,5.289,98.689,3.20823e-4
2.04,118.05,5.289,98.687,-6.04996e-3
2.06,118.27,5.289,98.688,0.0116460
2.08,118.48,5.288,98.684,-0.0103078
2.11,118.70,5.288,98.683,-0.0182301
2.13,118.92,5.288,98.681,-0.0158960
2.15,119.13,5.288,98.679,-0.0103013
2.17,119.35,5.288,98.676,-0.0148673
2.19,119.57,5.288,98.673,-6.58432e-3
2.21,119.79,5.288,98.672,-2.38016e-3
2.24,120.00,5.288,98.670,-0.0113621
2.26,120.22,5.288,98.668,-2.93541e-3
2.28,120.43,5.287,98.666,-3.35319e-3
2.30,120.65,5.287,98.663,-0.0111745
2.32,120.87,5.287,98.661,-9.43389e-3
2.34,121.08,5.287,98.658,-8.97481e-3
2.36,121.30,5.287,98.658,-4.41337e-3
2.39,121.51,5.287,98.656,-0.0142199
2.41,121.73,5.287,98.654,-1.23507e-3
2.43,121.95,5.287,98.653,-7.43225e-3
2.45,122.16,5.287,98.651,-8.18027e-3
2.47,122.38,5.287,98.652,9.15755e-3
2.49,122.60,5.287,98.652,-8.11020e-3
2.52,122.82,5.287,98.650,-0.0114781
2.54,123.04,5.287,98.648,-0.0123648
2.56,123.26,5.286,98.646,-9.93679e-3
2.58,123.47,5.286,98.644,-0.0189719
2.60,123.69,5.286,98.643,-8.87796e-3
2.63,123.91,5.286,98.642,1.37270e-4
2.65,124.12,5.286,98.641,-0.0143205
2.67,124.34,5.286,98.638,-1.64474e-3
2.69,124.56,5.286,98.637,-4.97145e-3
2.71,124.78,5.286,98.637,8.37222e-3
2.73,124.99,5.286,98.637,-1.68059e-3
2.76,125.21,5.286,98.636,-0.0191520
2.78,125.43,5.286,98.636,-8.62807e-4
2.80,125.65,5.286,98.634,-6.67993e-3
2.82,125.87,5.286,98.632,-8.32701e-3
2.84,126.09,5.286,98.632,-1.82170e-4
2.86,126.30,5.286,98.632,4.38332e-3
2.89,126.52,5.286,98.631,-4.66130e-3
2.91,126.74,5.286,98.631,3.75172e-3
2.93,126.95,5.286,98.630,-7.41125e-3
2.95,127.17,5.286,98.629,-4.39135e-3
2.97,127.39,5.285,98.628,-0.0138148
2.99,127.60,5.285,98.626,-0.0172863
3.01,127.82,5.285,98.624,-8.41177e-3
3.04,128.04,5.285,98.622,3.97686e-3
3.06,128.26,5.285,98.619,-5.02614e-3
3.08,128.47,5.285,98.618,-0.0215226
3.10,128.69,5.285,98.616,-8.32530e-3
3.12,128.91,5.285,98.614,4.55194e-5
3.14,129.12,5.285,98.613,6.31501e-3
3.17,129.34,5.285,98.614,0.0137812
3.19,129.56,5.285,98.615,-3.61842e-3
3.21,129.77,5.285,98.613,-0.0120421
3.23,129.99,5.285,98.611,1.32822e-3
3.25,130.21,5.285,98.611,5.03663e-3
3.28,130.42,5.284,98.610,-0.0129613
3.30,130.64,5.284,98.609,-2.70220e-3
3.32,130.86,5.284,98.606,-8.32862e-3
3.34,131.07,5.284,98.605,-5.39856e-3
3.36,131.29,5.284,98.607,-2.29222e-4
3.38,131.51,5.284,98.605,1.50867e-3
3.41,131.72,5.284,98.604,-4.70910e-3
3.43,131.94,5.284,98.602,-7.13632e-3
3.45,132.16,5.284,98.602,-0.0182610
3.47,132.37,5.284,98.600,-2.83973e-3
3.49,132.59,5.284,98.599,-0.0107241
3.51,132.81,5.284,98.597,-9.49164e-3
3.54,133.02,5.284,98.595,-0.0120166
3.56,133.24,5.284,98.595,4.40245e-3
3.58,133.46,5.284,98.595,-6.56038e-3
3.60,133.67,5.284,98.594,-6.83740e-3
3.62,133.89,5.284,98.593,-0.0104376
3.64,134.10,5.284,98.592,-9.89593e-3
3.66,134.32,5.283,98.590,-7.82392e-3
3.69,134.53,5.283,98.590,-0.0139904
3.71,134.75,5.283,98.589,-3.03309e-3
3.73,134.97,5.283,98.587,5.73495e-3
3.75,135.18,5.283,98.588,7.73917e-3
3.77,135.40,5.283,98.587,-7.99843e-3
3.79,135.62,5.283,98.587,-5.47813e-3
3.82,135.83,5.283,98.586,2.59976e-3
3.84,136.05,5.283,98.586,-1.68742e-3
3.86,136.27,5.283,98.585,-4.51916e-3
3.88,136.49,5.283,98.583,-9.91519e-3
3.90,136.70,5.283,98.581,-0.0146482
3.93,136.92,5.283,98.581,-7.19173e-3
3.95,137.14,5.283,98.581,-2.75145e-4
3.97,137.35,5.283,98.579,-0.0122432
3.99,137.57,5.283,98.579,2.42999e-3
4.01,137.78,5.283,98.579,3.34247e-3
4.03,138.00,5.283,98.578,-5.72258e-3
4.06,138.22,5.283,98.579,-2.19579e-3
4.08,138.43,5.283,98.578,-3.38277e-3
4.10,138.65,5.283,98.578,-8.59042e-3
4.12,138.87,5.283,98.578,-0.0126635
4.14,139.09,5.283,98.577,2.56189e-3
4.16,139.30,5.283,98.576,-1.14497e-3
4.19,139.52,5.283,98.575,-1.64986e-3
4.21,139.74,5.283,98.576,-7.83820e-3
4.23,139.95,5.283,98.576,1.69637e-3
4.25,140.17,5.283,98.576,-9.63353e-4
4.27,140.38,5.283,98.575,-0.0101742
4.29,140.60,5.283,98.574,-3.70956e-3
4.31,140.82,5.283,98.575,-9.75503e-3
4.34,141.03,5.283,98.574,-8.64800e-3
4.36,141.25,5.283,98.574,-1.64675e-3
4.38,141.47,5.282,98.573,2.70001e-3
4.40,141.68,5.283,98.573,-2.97570e-3
4.42,141.90,5.282,98.573,8.14834e-3
4.45,142.12,5.282,98.573,-2.33620e-3
4.47,142.33,5.282,98.572,5.77632e-3
4.49,142.55,5.282,98.573,-8.90093e-3
4.51,142.77,5.282,98.573,-7.34079e-4
4.53,142.98,5.283,98.573,-9.77961e-3
4.55,143.20,5.282,98.572,-6.97641e-3
4.58,143.41,5.282,98.571,-0.0100507
4.60,143.63,5.282,98.571,-0.0151399
4.62,143.85,5.282,98.570,8.84778e-3
4.64,144.06,5.282,98.569,-4.67690e-3
4.66,144.28,5.282,98.569,6.41613e-3
4.68,144.50,5.282,98.569,7.65263e-3
4.70,144.71,5.282,98.568,-5.67766e-3
4.73,144.93,5.282,98.568,-0.0114884
4.75,145.15,5.282,98.566,-9.52636e-3
4.77,145.36,5.282,98.565,5.99575e-3
4.79,145.58,5.282,98.564,-3.84719e-3
4.81,145.80,5.282,98.565,-4.16989e-3
4.84,146.01,5.282,98.565,-6.78114e-3
4.86,146.23,5.282,98.564,1.51279e-3
4.88,146.44,5.282,98.565,7.69843e-3
4.90,146.66,5.282,98.564,-5.08708e-3
4.92,146.88,5.282,98.564,0.0182979
4.94,147.09,5.282,98.564,-5.50560e-3
4.96,147.31,5.282,98.564,-1.33150e-3
4.99,147.53,5.282,98.565,0.0141346
5.01,147.74,5.282,98.565,0.0105601
5.03,147.96,5.282,98.564,-0.0136364
5.05,148.17,5.282,98.563,-4.13223e-4
5.07,148.39,5.282,98.564,-0.0114358
5.10,148.61,5.282,98.561,-9.82312e-3
5.12,148.82,5.282,98.561,-2.01931e-3
5.14,149.04,5.282,98.560,2.75496e-3
5.16,149.25,5.282,98.560,3.16804e-3
5.18,149.47,5.282,98.559,-5.95876e-4
5.20,149.69,5.282,98.562,-8.42815e-3
5.23,149.90,5.282,98.562,9.16397e-3
5.25,150.12,5.282,98.559,-3.48179e-3
5.27,150.34,5.282,98.559,8.97836e-3
5.29,150.55,5.282,98.560,0.0227737
5.31,150.77,5.282,98.561,-4.26214e-3
5.33,150.99,5.282,98.561,9.43911e-3
5.35,151.20,5.282,98.559,-4.21531e-3
5.38,151.42,5.282,98.559,-7.79347e-3
5.40,151.63,5.282,98.561,-1.37993e-4
5.42,151.85,5.282,98.561,0.0105954
5.44,152.07,5.282,98.561,4.45256e-3
5.46,152.28,5.282,98.561,-4.22406e-3
5.49,152.50,5.282,98.560,-7.52642e-3
5.51,152.72,5.282,98.559,9.08078e-3
5.53,152.93,5.282,98.559,-1.14553e-3
5.55,153.15,5.282,98.560,5.49451e-4
5.57,153.37,5.282,98.560,4.98513e-3
5.59,153.58,5.282,98.560,3.84090e-3
5.61,153.80,5.282,98.560,-5.39799e-3
5.64,154.02,5.282,98.561,6.45014e-3
5.66,154.23,5.282,98.562,-0.0196764
5.68,154.45,5.282,98.560,-4.35036e-3
5.70,154.67,5.282,98.560,-0.0153881
5.72,154.88,5.282,98.558,-2.70394e-3
5.75,155.10,5.282,98.558,-4.35496e-3
5.77,155.32,5.282,98.558,6.37168e-3
5.79,155.53,5.282,98.558,4.62878e-3
5.81,155.75,5.282,98.558,2.88845e-3
5.83,155.96,5.282,98.558,1.92546e-3
5.85,156.18,5.282,98.557,8.61907e-3
5.88,156.40,5.282,98.559,5.55046e-3
5.90,156.61,5.282,98.558,-2.29597e-3
5.92,156.83,5.282,98.558,-5.38102e-3
5.94,157.04,5.282,98.557,-7.50785e-3
5.96,157.26,5.282,98.559,9.03794e-3
5.98,157.47,5.282,98.558,2.58481e-3
6.00,157.69,5.282,98.558,6.09193e-3
6.03,157.90,5.282,98.561,0.0188775
6.05,158.12,5.282,98.562,-4.24189e-3
6.07,158.33,5.282,98.563,4.00342e-3
6.09,158.55,5.282,98.564,-2.70891e-3
6.11,158.77,5.282,98.562,-8.01542e-3
6.14,158.98,5.282,98.563,7.03884e-3
6.16,159.20,5.282,98.563,9.11325e-5
6.18,159.42,5.282,98.562,-1.14150e-3
6.20,159.64,5.282,98.565,5.80037e-3
6.22,159.85,5.282,98.565,-7.08769e-3
6.24,160.07,5.282,98.566,2.70007e-3
6.26,160.29,5.282,98.564,8.06672e-3
6.29,160.50,5.282,98.564,-5.91984e-3
6.31,160.72,5.282,98.566,8.90689e-3
6.33,160.93,5.282,98.565,-6.33788e-3
6.35,161.15,5.282,98.565,-6.51962e-3
6.37,161.37,5.282,98.565,4.12852e-4
6.40,161.58,5.282,98.564,8.24444e-4
6.42,161.80,5.282,98.563,-2.24448e-3
6.44,162.02,5.282,98.563,7.60672e-3
6.46,162.23,5.282,98.563,1.64982e-3
6.48,162.45,5.282,98.564,0.0182776
6.50,162.66,5.282,98.565,4.17247e-3
6.53,162.88,5.282,98.566,-8.63177e-3
6.55,163.10,5.282,98.565,1.65305e-3
6.57,163.31,5.282,98.565,4.40886e-3
6.59,163.53,5.282,98.564,-2.43074e-3
6.61,163.75,5.282,98.565,4.39701e-3
6.63,163.96,5.282,98.563,-0.0124905
6.65,164.18,5.282,98.566,-5.62287e-3
6.68,164.40,5.282,98.566,8.23279e-4
6.70,164.61,5.282,98.566,-6.40221e-4
6.72,164.83,5.282,98.565,1.14509e-3
6.74,165.05,5.282,98.566,1.47010e-3
6.76,165.26,5.282,98.565,7.71694e-3
6.79,165.48,5.282,98.566,-8.27164e-4
6.81,165.69,5.282,98.565,-5.09449e-3
6.83,165.91,5.282,98.565,4.61154e-5
6.85,166.13,5.282,98.564,-0.0155138
6.87,166.34,5.282,98.565,-5.80659e-3
6.89,166.56,5.282,98.564,-2.78866e-3
6.91,166.78,5.282,98.565,-2.51377e-3
6.94,166.99,5.282,98.565,1.32662e-3
6.96,167.21,5.282,98.566,-1.37283e-3
6.98,167.43,5.282,98.566,9.30339e-3
7.00,167.64,5.282,98.567,1.97136e-3
7.02,167.86,5.282,98.567,3.39508e-3
7.05,168.08,5.282,98.567,4.26997e-3
7.07,168.29,5.282,98.567,4.59559e-4
7.09,168.51,5.282,98.566,-2.43471e-3
7.11,168.72,5.282,98.567,-1.83598e-3
7.13,168.94,5.282,98.567,-1.79076e-3
7.15,169.16,5.282,98.568,9.13257e-3
7.18,169.37,5.282,98.569,-0.0155922
7.20,169.59,5.282,98.567,-0.0256306
7.22,169.80,5.282,98.568,1.00917e-3
7.24,170.02,5.282,98.568,0.0115615
7.26,170.24,5.282,98.569,0.0168807
7.28,170.45,5.282,98.571,0.0116457
7.30,170.67,5.282,98.571,2.57058e-3
7.33,170.89,5.282,98.573,-3.67111e-3
7.35,171.10,5.282,98.572,-9.95113e-3
7.37,171.32,5.282,98.572,7.98045e-3
7.39,171.53,5.282,98.571,-7.33434e-3
7.41,171.75,5.282,98.571,6.45962e-3
7.44,171.97,5.282,98.573,0.0122331
7.46,172.18,5.282,98.573,-6.87115e-4
7.48,172.40,5.282,98.573,5.91521e-3
7.50,172.62,5.283,98.574,-0.0169689
7.52,172.83,5.282,98.573,2.24843e-3
7.54,173.05,5.282,98.573,-0.0120706
7.56,173.26,5.282,98.573,4.49656e-3
7.59,173.48,5.283,98.574,0.0114222
7.61,173.70,5.283,98.574,-1.51350e-3
7.63,173.91,5.283,98.574,6.83165e-3
7.65,174.13,5.283,98.575,-8.48624e-3
7.67,174.35,5.283,98.574,8.35127e-3
7.70,174.56,5.283,98.575,-0.0101038
7.72,174.78,5.283,98.575,0.0223699
7.74,174.99,5.283,98.578,2.93960e-3
7.76,175.21,5.283,98.576,0.0118457
7.78,175.43,5.283,98.576,-9.36796e-3
7.80,175.64,5.283,98.576,-0.0111039
7.83,175.86,5.283,98.575,-2.15399e-3
7.85,176.07,5.283,98.575,-3.61722e-3
7.87,176.29,5.283,98.576,5.53675e-3
7.89,176.51,5.283,98.577,1.73904e-3
7.91,176.72,5.283,98.577,2.42670e-3
7.93,176.94,5.283,98.577,-1.28233e-3
7.95,177.16,5.283,98.579,0.0182488
7.98,177.37,5.283,98.580,-7.38331e-3
8.00,177.59,5.283,98.581,4.95727e-3
8.02,177.81,5.283,98.580,2.52378e-3
8.04,178.02,5.283,98.581,-8.07796e-3
8.06,178.24,5.283,98.580,9.96069e-3
8.09,178.45,5.283,98.580,-1.92661e-3
8.11,178.67,5.283,98.581,0.0211794
8.13,178.89,5.283,98.581,2.28929e-4
8.15,179.10,5.283,98.582,-4.17228e-3
8.17,179.32,5.283,98.582,-4.72189e-3
8.19,179.54,5.283,98.581,3.80734e-3
8.21,179.75,5.283,98.583,0.0119343
8.24,179.97,5.283,98.583,8.72360e-4
8.26,180.18,5.283,98.585,6.66119e-3
8.28,180.40,5.283,98.584,9.14347e-3
8.30,180.62,5.283,98.585,0.0100628
8.32,180.83,5.283,98.586,-1.88321e-3
8.35,181.05,5.283,98.585,5.32514e-3
8.37,181.26,5.283,98.587,5.41284e-3
8.39,181.48,5.283,98.586,-3.80494e-3
8.41,181.70,5.283,98.587,1.60256e-3
8.43,181.91,5.283,98.586,3.89014e-3
8.45,182.13,5.283,98.585,3.20747e-4
8.48,182.35,5.283,98.585,5.39584e-3
8.50,182.56,5.283,98.587,-4.02261e-3
8.52,182.78,5.283,98.585,-9.73992e-3
8.54,183.00,5.283,98.586,0.0111136
8.56,183.21,5.283,98.587,5.90301e-3
8.58,183.43,5.283,98.586,-3.43607e-3
8.60,183.65,5.283,98.587,9.26216e-3
8.63,183.86,5.283,98.588,3.89991e-3
8.65,184.08,5.283,98.590,0.0119763
8.67,184.30,5.283,98.592,2.47737e-3
8.69,184.51,5.284,98.593,6.24140e-3
8.71,184.73,5.284,98.595,8.52429e-3
8.73,184.95,5.284,98.594,1.74124e-3
8.76,185.16,5.284,98.595,-3.66712e-3
8.78,185.38,5.284,98.595,-5.96280e-4
8.80,185.59,5.284,98.594,-3.57798e-3
8.82,185.81,5.284,98.594,1.83560e-3
8.84,186.03,5.284,98.594,2.02020e-3
8.87,186.24,5.284,98.595,-2.84575e-3
8.89,186.46,5.284,98.595,9.13682e-3
8.91,186.67,5.284,98.597,-6.56336e-3
8.93,186.89,5.284,98.597,2.15746e-3
8.95,187.11,5.284,98.597,-7.10662e-3
8.97,187.32,5.284,98.596,-6.40942e-4
9.00,187.54,5.284,98.596,8.24134e-4
9.02,187.76,5.284,98.599,-8.19791e-3
9.04,187.97,5.284,98.597,-3.11491e-3
9.06,188.19,5.284,98.597,-1.05408e-3
9.08,188.41,5.284,98.597,-6.41613e-4
9.10,188.62,5.284,98.596,-0.0130648
9.13,188.84,5.284,98.595,-0.0103666
9.15,189.05,5.284,98.595,9.04081e-3
9.17,189.27,5.284,98.595,6.42034e-3
9.19,189.49,5.284,98.595,-1.92513e-3
9.21,189.70,5.284,98.595,-6.13456e-3
9.23,189.92,5.284,98.595,-5.44019e-3
9.25,190.14,5.284,98.596,-1.27880e-3
9.28,190.36,5.284,98.597,5.56784e-3
9.30,190.57,5.284,98.597,-0.0117273
9.32,190.79,5.284,98.596,-1.14178e-3
9.34,191.01,5.284,98.597,7.95222e-3
9.36,191.22,5.284,98.598,9.33036e-3
9.38,191.44,5.284,98.597,0.0107119
9.41,191.66,5.284,98.599,0.0161691
9.43,191.87,5.284,98.600,9.62168e-4
9.45,192.09,5.284,98.600,7.19114e-3
9.47,192.31,5.284,98.600,-5.36112e-3
9.49,192.52,5.284,98.600,-5.49451e-3
9.52,192.74,5.284,98.601,1.87669e-3
9.54,192.96,5.284,98.601,0.0121795
9.56,193.17,5.284,98.602,1.41941e-3
9.58,193.39,5.284,98.604,0.0100765
9.60,193.61,5.284,98.603,3.89446e-3
9.62,193.82,5.284,98.603,-3.80573e-3
9.65,194.04,5.284,98.604,5.87311e-3
9.67,194.25,5.284,98.604,-2.56958e-3
9.69,194.47,5.284,98.606,-3.90102e-3
9.71,194.69,5.284,98.606,4.81901e-3
9.73,194.90,5.284,98.606,-7.93825e-3
9.75,195.12,5.284,98.606,5.73394e-3
9.78,195.34,5.284,98.606,-2.20334e-3
9.80,195.55,5.284,98.607,7.06244e-3
9.82,195.77,5.284,98.607,6.69530e-3
9.84,195.98,5.284,98.607,5.27196e-3
9.86,196.20,5.284,98.606,-2.93447e-3
9.88,196.42,5.284,98.606,7.88852e-3
9.90,196.63,5.284,98.609,2.28962e-4
9.93,196.85,5.284,98.609,3.44131e-3
9.95,197.07,5.284,98.609,-2.29046e-4
9.97,197.28,5.284,98.608,-5.97793e-3
9.99,197.50,5.284,98.609,-3.08615e-3
10.01,197.71,5.284,98.610,0.0107413
10.03,197.93,5.285,98.611,5.07184e-4
10.06,198.14,5.285,98.612,5.15654e-3
10.08,198.36,5.285,98.612,2.25184e-3
10.10,198.57,5.285,98.614,0.0144598
10.12,198.79,5.285,98.613,2.01765e-3
10.14,199.01,5.285,98.614,-1.23699e-3
10.17,199.22,5.285,98.615,-8.33718e-3
10.19,199.44,5.285,98.615,0.0167125
10.21,199.66,5.285,98.619,0.0114917
10.23,199.87,5.285,98.619,1.78536e-3
10.25,200.09,5.285,98.620,3.52549e-3
10.27,200.31,5.285,98.621,-5.49451e-4
10.30,200.52,5.285,98.620,9.84574e-3
10.32,200.74,5.285,98.620,-5.49451e-4
10.34,200.96,5.285,98.620,-0.0116757
10.36,201.17,5.285,98.618,9.60181e-4
10.38,201.39,5.285,98.619,5.49501e-4
10.40,201.61,5.285,98.619,6.27147e-3
10.43,201.82,5.285,98.622,0.0221220
10.45,202.04,5.285,98.623,1.83284e-4
10.47,202.26,5.285,98.623,7.92809e-3
10.49,202.47,5.285,98.624,-6.60248e-3
10.51,202.69,5.285,98.624,-6.83839e-3
10.53,202.90,5.285,98.623,-0.0101378
10.55,203.12,5.285,98.624,-2.93448e-3
10.58,203.34,5.285,98.624,5.26876e-3
10.60,203.55,5.285,98.625,-8.05616e-3
10.62,203.77,5.285,98.625,-3.24794e-3
10.64,203.99,5.285,98.625,8.69167e-4
10.66,204.20,5.285,98.624,-3.97726e-3
10.68,204.42,5.285,98.625,-2.74215e-4
10.71,204.64,5.285,98.624,1.96761e-3
10.73,204.85,5.285,98.625,2.24230e-3
10.75,205.07,5.285,98.627,0.0181730
10.77,205.29,5.285,98.629,2.97750e-3
10.79,205.50,5.285,98.629,-4.35114e-3
10.82,205.72,5.285,98.629,0.0118644
10.84,205.94,5.285,98.628,0.0142007
10.86,206.15,5.286,98.629,0.0186685
10.88,206.37,5.286,98.631,7.04051e-3
10.90,206.59,5.286,98.630,1.96457e-3
10.92,206.81,5.286,98.630,-0.0183224
10.95,207.02,5.286,98.629,-3.97521e-3
10.97,207.24,5.286,98.630,-8.68373e-4
10.99,207.46,5.286,98.630,9.74095e-3
11.01,207.67,5.286,98.631,8.64872e-3
11.03,207.89,5.286,98.634,-1.46591e-3
11.05,208.11,5.286,98.632,-4.12928e-4
11.08,208.32,5.286,98.632,5.49895e-4
11.10,208.54,5.286,98.633,8.39226e-3
11.12,208.76,5.286,98.634,0.0160030
11.14,208.97,5.286,98.633,0.0110019
11.16,209.19,5.286,98.633,3.69796e-7
11.18,209.40,5.286,98.633,6.41613e-4
11.20,209.62,5.286,98.633,0.0142465
11.23,209.84,5.286,98.633,-1.51127e-3
11.25,210.05,5.286,98.633,7.41551e-3
11.27,210.27,5.286,98.634,-5.12657e-3
11.29,210.49,5.286,98.635,0.0112138
11.31,210.70,5.286,98.634,-7.27530e-3
11.33,210.92,5.286,98.635,2.24302e-3
11.36,211.14,5.286,98.635,0.0100305
11.38,211.35,5.286,98.634,-1.00785e-3
11.40,211.57,5.286,98.635,0.0233272
11.42,211.79,5.286,98.636,4.72002e-3
11.44,212.00,5.286,98.635,7.93347e-3
11.47,212.22,5.286,98.637,-1.74312e-3
11.49,212.44,5.286,98.636,5.50174e-3
11.51,212.65,5.286,98.638,-5.72966e-3
11.53,212.87,5.286,98.638,-2.79554e-3
11.55,213.09,5.286,98.640,0.0115060
11.57,213.30,5.286,98.641,4.21804e-3
11.60,213.52,5.286,98.641,-0.0108636
11.62,213.73,5.286,98.641,2.33916e-3
11.64,213.95,5.286,98.642,-0.0105916
11.66,214.17,5.286,98.644,0.0132957
11.68,214.38,5.286,98.644,9.63303e-4
11.70,214.60,5.286,98.644,-7.11009e-3
11.73,214.82,5.286,98.645,0.0127081
11.75,215.03,5.286,98.644,-4.58993e-4
11.77,215.25,5.286,98.645,0.0117324
11.79,215.46,5.287,98.649,5.08421e-3
11.81,215.68,5.287,98.650,-1.92465e-3
11.83,215.90,5.287,98.649,-2.75439e-4
11.85,216.11,5.287,98.650,-3.43721e-3
11.88,216.33,5.287,98.649,2.19930e-3
11.90,216.55,5.287,98.649,0.0112719
11.92,216.76,5.287,98.649,-0.0146099
11.94,216.98,5.286,98.648,2.29223e-4
11.96,217.20,5.287,98.649,9.25482e-5
11.98,217.41,5.287,98.649,0.0102992
12.01,217.63,5.287,98.651,-4.34739e-3
12.03,217.85,5.287,98.651,6.95334e-3
12.05,218.06,5.287,98.651,-7.04655e-3
12.07,218.28,5.287,98.651,-3.79689e-3
12.09,218.50,5.287,98.650,-0.0107601
12.12,218.71,5.287,98.650,9.75879e-3
12.14,218.93,5.287,98.651,0.0150273
12.16,219.15,5.287,98.653,3.98954e-3
12.18,219.36,5.287,98.653,-1.87900e-3
12.20,219.58,5.287,98.651,4.54307e-3
12.22,219.79,5.287,98.652,0.0182137
12.25,220.01,5.287,98.652,-7.15814e-3
12.27,220.23,5.287,98.653,0.0151385
12.29,220.44,5.287,98.651,-0.0181579
12.31,220.66,5.287,98.653,0.0239011
12.33,220.88,5.287,98.654,1.96706e-3
12.35,221.09,5.287,98.653,-0.0157678
12.38,221.31,5.287,98.652,3.60915e-3
12.40,221.53,5.287,98.650,-5.30114e-3
12.42,221.74,5.287,98.651,0.0145859
12.44,221.96,5.287,98.652,4.67018e-3
12.46,222.18,5.287,98.652,3.80356e-3
12.48,222.39,5.287,98.651,-0.0272526
12.50,222.61,5.287,98.650,1.60698e-3
12.53,222.83,5.287,98.650,6.42842e-4
12.55,223.04,5.287,98.651,-9.59116e-3
12.57,223.26,5.287,98.652,3.48562e-3
12.59,223.47,5.287,98.653,7.14940e-3
12.61,223.69,5.287,98.654,1.36910e-4
12.63,223.91,5.287,98.654,0.0115868
12.66,224.12,5.287,98.654,-2.74874e-3
12.68,224.34,5.287,98.654,5.35956e-3
12.70,224.56,5.287,98.657,-2.93387e-3
12.72,224.77,5.287,98.656,-0.0141807
12.74,224.99,5.287,98.654,-3.02872e-3
12.77,225.21,5.287,98.656,-5.87417e-3
12.79,225.42,5.287,98.657,-9.17819e-4
12.81,225.64,5.287,98.656,3.21210e-4
12.83,225.85,5.287,98.656,-3.94659e-3
12.85,226.07,5.287,98.657,0.0180318
12.87,226.29,5.287,98.659,7.43802e-3
12.90,226.50,5.287,98.659,0.0101010
12.92,226.72,5.287,98.658,2.93830e-3
12.94,226.93,5.287,98.658,0.0111853
12.96,227.15,5.287,98.658,-3.15900e-3
12.98,227.37,5.287,98.659,-2.28829e-4
13.00,227.58,5.287,98.660,7.63313e-3
13.03,227.80,5.287,98.660,9.59872e-4
13.05,228.02,5.287,98.662,-2.97204e-3
13.07,228.24,5.287,98.660,1.23586e-3
13.09,228.45,5.287,98.662,0.0138772
13.11,228.67,5.287,98.661,-6.87939e-4
13.13,228.88,5.287,98.662,-0.0100434
13.15,229.10,5.287,98.661,4.72477e-3
13.18,229.32,5.287,98.663,-2.11098e-3
13.20,229.53,5.287,98.663,0.0133176
13.22,229.75,5.287,98.664,-1.05699e-3
13.24,229.96,5.287,98.666,1.65577e-3
13.26,230.18,5.287,98.665,-3.73048e-3
13.28,230.40,5.288,98.667,-1.56741e-3
13.31,230.61,5.288,98.667,-5.53506e-4
13.33,230.83,5.288,98.667,-4.42624e-3
13.35,231.04,5.288,98.667,3.68144e-3
13.37,231.26,5.287,98.666,-0.0107923
13.39,231.47,5.287,98.665,6.00042e-3
13.42,231.69,5.288,98.667,-5.48730e-4
13.44,231.91,5.287,98.665,-1.77804e-3
13.46,232.12,5.287,98.665,-3.96293e-3
13.48,232.34,5.287,98.666,0.0108056
13.50,232.56,5.287,98.665,-3.65067e-3
13.52,232.78,5.287,98.664,2.97251e-3
13.55,232.99,5.287,98.666,0.0214428
13.57,233.21,5.288,98.667,-0.0110193
13.59,233.43,5.288,98.669,2.16100e-3
13.61,233.64,5.288,98.669,-6.95545e-3
13.63,233.86,5.288,98.669,6.45648e-3
13.65,234.07,5.288,98.671,-9.21124e-4
13.68,234.29,5.288,98.670,6.25512e-3
13.70,234.50,5.288,98.672,0.0194077
13.72,234.72,5.288,98.671,-3.38885e-3
13.74,234.94,5.288,98.672,4.20888e-3
13.76,235.15,5.288,98.674,-2.69907e-3
13.78,235.37,5.288,98.674,7.14380e-3
13.80,235.59,5.288,98.676,0.0149324
13.83,235.80,5.288,98.677,7.28520e-3
13.85,236.02,5.288,98.676,1.37598e-4
13.87,236.24,5.288,98.675,0.0105311
13.89,236.45,5.288,98.675,-0.0100660
13.91,236.67,5.288,98.678,3.38233e-3
13.93,236.89,5.288,98.679,-9.96815e-3
13.96,237.10,5.288,98.678,0.0116213
[...]
18.20,279.54,5.290,98.720,1.05473e-3
18.23,279.76,5.290,98.720,9.71235e-3
18.25,279.98,5.290,98.721,-2.42674e-3
18.27,280.19,5.290,98.721,-0.0105709
18.29,280.41,5.290,98.720,7.91826e-3
18.31,280.63,5.290,98.721,-1.23626e-3
18.33,280.84,5.290,98.720,0.0170788
18.36,281.06,5.291,98.723,0.0124590
18.38,281.28,5.290,98.722,0.0104925
18.40,281.49,5.290,98.721,-6.82575e-3
18.42,281.71,5.290,98.721,-9.07053e-3
18.44,281.93,5.290,98.720,-7.05563e-3
18.46,282.14,5.290,98.720,-1.83271e-3
18.48,282.36,5.290,98.720,-0.0106227
18.51,282.57,5.290,98.717,-8.93330e-3
18.53,282.79,5.290,98.716,-3.20201e-3
18.55,283.01,5.290,98.713,-9.24360e-3
18.57,283.22,5.290,98.711,-0.0116685
18.59,283.44,5.290,98.711,-8.46327e-3
18.62,283.66,5.290,98.712,-4.62139e-3
18.64,283.88,5.290,98.712,-2.51969e-3
18.66,284.09,5.290,98.711,-6.50535e-3
18.68,284.31,5.290,98.712,0.0206187
18.70,284.52,5.290,98.711,-7.23644e-3
18.72,284.74,5.290,98.710,-8.65385e-3
18.74,284.96,5.290,98.709,-0.0101648
18.77,285.17,5.290,98.707,-8.01282e-3
18.79,285.39,5.290,98.707,3.43407e-3
18.81,285.61,5.290,98.705,-7.23443e-3
18.83,285.82,5.290,98.705,9.66584e-3
18.85,286.04,5.290,98.706,-7.78438e-4
18.88,286.26,5.290,98.706,-6.27643e-3
18.90,286.47,5.290,98.704,4.07798e-3
18.92,286.69,5.289,98.703,-9.14920e-3
18.94,286.91,5.289,98.702,6.49267e-3
18.96,287.12,5.289,98.703,0.0108318
18.98,287.34,5.290,98.704,0.0121638
19.01,287.56,5.289,98.704,-0.0127116
19.03,287.77,5.289,98.702,-5.49416e-4
19.05,287.99,5.289,98.702,7.23106e-3
19.07,288.21,5.289,98.700,5.81016e-3
19.09,288.43,5.289,98.701,0.0202839
19.11,288.64,5.289,98.702,-5.99872e-3
19.13,288.86,5.289,98.701,5.13077e-3
19.16,289.07,5.289,98.701,4.39792e-3
19.18,289.29,5.289,98.700,-9.25704e-3
19.20,289.51,5.289,98.699,2.79690e-3
19.22,289.72,5.289,98.701,2.15613e-3
19.24,289.94,5.289,98.702,1.60256e-3
19.27,290.16,5.289,98.702,0.0180861
19.29,290.37,5.289,98.702,-1.37428e-3
19.31,290.59,5.289,98.701,0.0136804
19.33,290.81,5.289,98.702,-0.0118069
19.35,291.02,5.289,98.702,1.46384e-3
19.37,291.24,5.289,98.700,0.0105754
19.39,291.46,5.289,98.701,0.0229031
19.42,291.67,5.289,98.701,3.16201e-3
19.44,291.89,5.289,98.700,7.80085e-4
19.46,292.11,5.289,98.703,-5.54363e-3
19.48,292.32,5.289,98.704,-0.0184524
19.50,292.54,5.289,98.700,-0.0172979
19.53,292.76,5.289,98.702,1.50682e-3
19.55,292.97,5.289,98.703,5.07875e-3
19.57,293.19,5.289,98.703,8.92857e-3
19.59,293.41,5.290,98.704,-0.0156259
19.61,293.62,5.289,98.703,-5.72712e-3
19.63,293.84,5.289,98.703,9.66444e-3
19.66,294.06,5.290,98.705,0.0341820
19.68,294.27,5.290,98.706,-8.33751e-3
19.70,294.49,5.290,98.705,-0.0104461
19.72,294.71,5.290,98.704,-0.0122757
19.74,294.92,5.290,98.704,8.29268e-3
19.76,295.14,5.290,98.706,2.70439e-3
19.78,295.36,5.290,98.704,9.94132e-3
19.81,295.57,5.289,98.703,-6.50841e-3
19.83,295.79,5.289,98.702,1.37319e-3
19.85,296.00,5.289,98.702,3.07230e-3
19.87,296.22,5.289,98.702,-5.54602e-3
19.89,296.44,5.289,98.702,-0.0119621
19.92,296.65,5.289,98.701,-4.44300e-3
19.94,296.87,5.289,98.700,-0.0135531
19.96,297.09,5.289,98.699,0.0128663
19.98,297.30,5.289,98.698,-4.30579e-3
20.00,297.52,5.289,98.698,-5.95434e-3
20.02,297.74,5.289,98.700,0.0133407
20.04,297.95,5.289,98.702,-0.0226513
20.07,298.17,5.289,98.701,-3.66972e-3
20.09,298.39,5.289,98.701,-6.47070e-3
20.11,298.60,5.289,98.700,-4.12844e-3
20.13,298.82,5.289,98.700,-9.63303e-3
20.15,299.03,5.289,98.699,-0.0146636
20.18,299.25,5.289,98.699,-0.0178571
20.20,299.47,5.289,98.696,3.93245e-3
20.22,299.68,5.289,98.696,0.0122959
20.24,299.90,5.289,98.697,9.00919e-3
20.26,300.12,5.289,98.698,-3.33973e-3
20.28,300.33,5.289,98.697,-9.79262e-3
20.31,300.55,5.289,98.697,7.69549e-3
20.33,300.77,5.289,98.695,-5.63187e-3
20.35,300.98,5.289,98.696,-1.41891e-3
20.37,301.20,5.289,98.696,-7.04674e-3
20.39,301.42,5.289,98.695,5.76623e-3
20.41,301.64,5.289,98.695,5.03370e-3
20.43,301.85,5.289,98.693,3.20513e-3
20.46,302.07,5.289,98.693,6.82567e-3
20.48,302.28,5.289,98.693,-2.56620e-3
20.50,302.50,5.289,98.692,8.57165e-3
20.52,302.72,5.289,98.693,0.0123448
20.54,302.93,5.289,98.694,-1.88181e-3
20.57,303.15,5.289,98.699,0.0256815
20.59,303.37,5.289,98.702,-3.95221e-3
20.61,303.58,5.289,98.699,-0.0160340
20.63,303.80,5.289,98.698,3.68305e-4
20.65,304.01,5.289,98.698,-6.14879e-3
20.67,304.23,5.289,98.697,-0.0200459
20.69,304.45,5.289,98.697,-2.61468e-3
20.72,304.66,5.289,98.698,-9.17431e-5
20.74,304.88,5.289,98.697,-1.37808e-3
20.76,305.09,5.289,98.695,4.31985e-3
20.78,305.31,5.289,98.699,0.0167928
20.80,305.52,5.289,98.698,7.63869e-3
20.83,305.74,5.289,98.696,-0.0255064
20.85,305.96,5.289,98.696,-0.0134308
20.87,306.17,5.289,98.696,5.97663e-4
20.89,306.39,5.289,98.695,-0.0152752
20.91,306.60,5.289,98.694,-0.0157638
20.93,306.82,5.289,98.695,6.82234e-3
20.96,307.04,5.289,98.694,0.0245352
20.98,307.25,5.289,98.694,0.0226017
21.00,307.47,5.289,98.695,-7.50384e-3
21.02,307.69,5.289,98.693,-1.64768e-3
21.04,307.90,5.289,98.693,9.47802e-3
21.06,308.12,5.289,98.695,-5.59076e-3
21.08,308.34,5.289,98.693,5.72651e-3
21.11,308.55,5.289,98.693,-0.0262509
21.13,308.77,5.289,98.691,-3.11355e-3
21.15,308.99,5.289,98.692,4.71612e-3
21.17,309.20,5.289,98.690,1.35902e-4
21.19,309.42,5.289,98.688,-4.07946e-3
21.22,309.64,5.289,98.686,-0.0119249
21.24,309.85,5.289,98.686,1.87934e-3
21.26,310.07,5.288,98.685,-0.0103156
21.28,310.28,5.288,98.685,3.85321e-3
21.30,310.50,5.288,98.683,-5.45532e-3
21.32,310.72,5.288,98.683,-8.84645e-3
21.34,310.93,5.288,98.683,-0.0201156
21.37,311.15,5.288,98.683,0.0110492
21.39,311.37,5.288,98.683,-0.0156881
21.41,311.58,5.288,98.682,-2.73817e-4
21.43,311.80,5.288,98.681,4.69477e-5
21.45,312.02,5.288,98.679,8.20759e-3
21.48,312.23,5.288,98.682,-2.24423e-3
21.50,312.45,5.288,98.679,-7.79090e-3
21.52,312.66,5.288,98.677,-0.0174393
21.54,312.88,5.288,98.676,0.0230557
21.56,313.10,5.288,98.676,0.0146709
21.58,313.32,5.288,98.675,-4.66368e-5
21.61,313.53,5.288,98.677,5.93231e-3
21.63,313.75,5.288,98.673,-6.02521e-3
21.65,313.97,5.288,98.673,2.33247e-3
21.67,314.18,5.288,98.671,-0.0131868
21.69,314.40,5.288,98.670,-8.51648e-3
21.71,314.62,5.288,98.670,-1.69414e-3
21.73,314.83,5.288,98.672,-5.58002e-3
21.76,315.05,5.288,98.671,0.0155257
21.78,315.27,5.288,98.671,-0.0205599
21.80,315.49,5.288,98.669,-0.0224699
21.82,315.70,5.288,98.668,1.64061e-3
21.84,315.92,5.288,98.668,3.42281e-3
21.87,316.14,5.287,98.666,-0.0125614
21.89,316.36,5.287,98.664,2.14913e-3
21.91,316.57,5.287,98.664,-0.0116192
21.93,316.79,5.287,98.662,-0.0101515
21.95,317.01,5.287,98.660,-0.0219756
21.97,317.22,5.287,98.660,0.0147098
21.99,317.44,5.287,98.660,-8.13187e-3
22.02,317.66,5.287,98.657,-0.0230225
22.04,317.87,5.287,98.656,-0.0125191
22.06,318.09,5.287,98.656,-0.0118403
22.08,318.31,5.287,98.655,-0.0110668
22.10,318.53,5.287,98.652,-3.43160e-3
22.13,318.74,5.287,98.651,-0.0139588
22.15,318.96,5.287,98.652,-8.92371e-3
22.17,319.18,5.287,98.651,-6.86277e-3
22.19,319.39,5.287,98.649,-0.0136396
22.21,319.61,5.287,98.650,4.25824e-3
22.23,319.83,5.287,98.650,-7.23863e-3
22.26,320.04,5.286,98.647,-0.0255634
22.28,320.26,5.286,98.647,9.34066e-3
22.30,320.48,5.286,98.644,-0.0254945
22.32,320.69,5.286,98.642,-9.15106e-3
22.34,320.91,5.286,98.645,-0.0104326
22.36,321.13,5.286,98.642,-0.0170235
22.38,321.34,5.286,98.641,-5.03344e-4
22.41,321.56,5.286,98.640,0.0128554
22.43,321.78,5.286,98.638,0.0120421
22.45,321.99,5.286,98.636,-7.18864e-3
22.47,322.21,5.286,98.635,-7.33013e-3
22.49,322.43,5.286,98.633,1.97145e-3
22.52,322.64,5.286,98.631,-4.30952e-3
22.54,322.86,5.285,98.629,-5.73394e-3
22.56,323.07,5.285,98.628,1.60374e-3
22.58,323.29,5.286,98.629,-0.0268894
22.60,323.51,5.285,98.625,-0.0188614
22.62,323.72,5.285,98.623,-9.08257e-3
22.64,323.94,5.285,98.623,-0.0173027
22.67,324.15,5.285,98.620,-2.52565e-3
22.69,324.37,5.285,98.618,-0.0171178
22.71,324.59,5.285,98.619,-0.0171101
22.73,324.80,5.285,98.616,2.15502e-3
22.75,325.02,5.285,98.615,-8.85321e-3
22.78,325.24,5.285,98.615,-8.44037e-3
22.80,325.45,5.285,98.611,-3.71282e-3
22.82,325.67,5.284,98.609,0.0165455
22.84,325.88,5.284,98.610,-0.0206161
22.86,326.10,5.285,98.611,0.0181319
22.88,326.32,5.284,98.609,-0.0676454
22.91,326.53,5.284,98.606,-0.0333966
22.93,326.75,5.284,98.601,-0.0114528
22.95,326.97,5.284,98.600,1.74003e-3
22.97,327.18,5.284,98.599,-2.60952e-3
22.99,327.40,5.284,98.599,4.62008e-3
23.01,327.62,5.284,98.598,-9.78682e-3
23.03,327.83,5.284,98.597,6.03866e-3
23.06,328.05,5.284,98.594,-0.0424372
23.08,328.27,5.283,98.591,-4.52787e-3
23.10,328.48,5.283,98.588,6.86644e-4
23.12,328.70,5.283,98.586,-5.07313e-3
23.14,328.92,5.283,98.584,-0.0191956
23.17,329.14,5.283,98.584,-0.0111118
23.19,329.35,5.283,98.578,-0.0204488
23.21,329.57,5.283,98.575,-0.0126712
23.23,329.79,5.282,98.573,-3.15939e-3
23.25,330.00,5.282,98.572,-8.83700e-3
23.27,330.22,5.282,98.570,-0.0232224
23.29,330.44,5.282,98.568,-0.0301282
23.32,330.65,5.282,98.563,0.0137892
23.34,330.87,5.282,98.561,-0.0132826
23.36,331.09,5.282,98.558,-0.0215277
23.38,331.30,5.281,98.554,-0.0824199
23.40,331.52,5.281,98.552,-0.0131800
23.43,331.74,5.281,98.549,-4.20795e-3
23.45,331.95,5.281,98.545,-0.0237108
23.47,332.17,5.281,98.540,-0.0386621
23.49,332.39,5.281,98.539,1.78571e-3
23.51,332.60,5.281,98.536,1.37363e-4
23.53,332.82,5.280,98.532,-0.0206563
23.56,333.04,5.280,98.530,-0.0212046
23.58,333.25,5.280,98.527,-0.0169915
23.60,333.47,5.280,98.522,-0.0530251
23.62,333.68,5.280,98.518,-1.78571e-3
23.64,333.90,5.279,98.516,-0.0276557
23.66,334.12,5.279,98.514,-0.0159839
23.68,334.33,5.279,98.511,-9.07251e-3
23.71,334.55,5.279,98.508,-0.0131582
23.73,334.77,5.279,98.505,-7.15445e-3
23.75,334.98,5.279,98.499,-0.0568279
23.77,335.20,5.278,98.496,-0.0185191
23.79,335.42,5.278,98.490,-0.0206230
23.82,335.63,5.278,98.487,-0.0101256
23.84,335.85,5.278,98.483,-4.35702e-3
23.86,336.07,5.277,98.479,-0.0132501
23.88,336.28,5.277,98.474,-0.0259965
23.90,336.50,5.277,98.470,-0.0293478
23.92,336.71,5.277,98.466,-9.07416e-3
23.94,336.93,5.277,98.462,-0.0250133
23.97,337.15,5.276,98.459,-0.0111264
23.99,337.36,5.276,98.455,-0.0370275
24.01,337.58,5.276,98.450,-0.0482425
24.03,337.80,5.276,98.444,-0.0233516
24.05,338.01,5.275,98.438,-0.0342800
24.08,338.23,5.275,98.433,-0.0203744
24.10,338.45,5.275,98.430,4.36120e-3
24.12,338.66,5.275,98.425,-0.0234968
24.14,338.88,5.274,98.420,-0.0219637
24.16,339.09,5.274,98.414,-0.0455707
24.18,339.31,5.274,98.407,-0.0283687
24.21,339.53,5.273,98.402,-0.0324418
24.23,339.74,5.273,98.397,-0.0119963
24.25,339.96,5.273,98.390,-0.0134615
24.27,340.18,5.272,98.385,-0.0300544
24.29,340.39,5.272,98.381,-0.0277717
24.31,340.61,5.272,98.373,-0.0433340
24.33,340.83,5.271,98.366,-0.0355194
24.36,341.04,5.271,98.360,-0.0240367
24.38,341.26,5.271,98.353,-0.0279817
24.40,341.47,5.270,98.344,-0.0380534
24.42,341.69,5.270,98.339,-0.0184691
24.44,341.91,5.270,98.332,-0.0281335
24.47,342.12,5.269,98.325,-0.0242216
24.49,342.34,5.269,98.318,-0.0167201
24.51,342.56,5.268,98.310,-0.0128244
24.53,342.77,5.268,98.302,-0.0191057
24.55,342.99,5.268,98.296,-0.0342694
24.57,343.21,5.267,98.289,-0.0364342
24.59,343.42,5.267,98.283,-0.0402930
24.62,343.64,5.266,98.267,-0.0243815
24.64,343.86,5.266,98.261,-0.0226857
24.66,344.07,5.265,98.255,-0.0257253
24.68,344.29,5.265,98.247,-0.0328142
24.70,344.51,5.265,98.239,-0.0434922
24.73,344.72,5.264,98.229,-0.101648
24.75,344.94,5.263,98.218,-0.0344597
24.77,345.16,5.263,98.210,-0.0522158
24.79,345.37,5.262,98.199,-0.0628540
24.81,345.59,5.262,98.188,-0.0494324
24.83,345.81,5.261,98.178,-0.0639765
24.86,346.02,5.261,98.166,-0.0455300
24.88,346.24,5.260,98.157,-0.0491014
24.90,346.46,5.260,98.146,-0.0466783
24.92,346.67,5.259,98.134,-0.0665815
24.94,346.89,5.258,98.122,-0.0666148
24.96,347.10,5.258,98.110,-0.0539870
24.98,347.32,5.257,98.098,-0.0884503
25.01,347.54,5.256,98.084,-0.0485792
25.03,347.75,5.256,98.072,-0.0640239
25.05,347.97,5.255,98.058,-0.0431259
25.07,348.19,5.254,98.045,-0.0450499
25.09,348.40,5.253,98.029,-0.0761221
25.12,348.62,5.252,98.009,-0.124745
25.14,348.84,5.252,97.996,-0.0524284
25.16,349.05,5.251,97.983,-0.0676183
25.18,349.27,5.250,97.966,-0.0881890
25.20,349.49,5.249,97.945,-0.0789805
25.22,349.70,5.248,97.928,-0.0770390
25.24,349.92,5.247,97.910,-0.0906512
25.27,350.13,5.246,97.892,-0.0884512
25.29,350.35,5.245,97.872,-0.100147
25.31,350.57,5.244,97.852,-0.0876552
25.33,350.78,5.243,97.830,-0.115374
25.35,351.00,5.242,97.809,-0.105769
25.38,351.22,5.240,97.789,-0.0872253
25.40,351.43,5.239,97.765,-0.136859
25.42,351.65,5.238,97.738,-0.0776557
25.44,351.87,5.237,97.715,-0.0987180
25.46,352.08,5.235,97.694,-0.111859
25.48,352.30,5.234,97.670,-0.0970238
25.51,352.52,5.233,97.644,-0.112516
25.53,352.73,5.231,97.617,-0.118607
25.55,352.95,5.230,97.594,-0.0959215
25.57,353.17,5.229,97.569,-0.154899
25.59,353.38,5.227,97.537,-0.110453
25.61,353.60,5.226,97.514,-0.176786
25.63,353.82,5.224,97.481,-0.113527
25.66,354.03,5.222,97.452,-0.189377
25.68,354.25,5.221,97.422,-0.157326
25.70,354.47,5.219,97.389,-0.177427
25.72,354.68,5.217,97.359,-0.207967
25.74,354.90,5.216,97.330,-0.171287
25.77,355.12,5.213,97.283,-0.145364
25.79,355.33,5.212,97.256,-0.157326
25.81,355.55,5.210,97.216,-0.375191
25.83,355.76,5.208,97.183,-0.188736
25.85,355.98,5.206,97.141,-0.125412
25.87,356.20,5.204,97.113,-0.164136
25.89,356.41,5.202,97.074,-0.195660
25.92,356.63,5.200,97.042,-0.195492
25.94,356.85,5.199,97.010,-0.146526
25.96,357.06,5.197,96.973,-0.145928
25.98,357.28,5.195,96.947,-0.110215
26.00,357.50,5.193,96.894,-0.146320
26.03,357.71,5.190,96.845,-0.150722
26.05,357.93,5.188,96.810,-0.185837
26.07,358.15,5.186,96.770,-0.219826
26.09,358.36,5.184,96.730,-0.303088
26.11,358.58,5.182,96.693,-0.207831
26.13,358.79,5.179,96.647,-0.142988
26.16,359.01,5.177,96.599,-0.146845
26.18,359.23,5.175,96.565,-0.128229
26.20,359.44,5.172,96.508,-0.153984
26.22,359.66,5.169,96.450,-0.153980
26.24,359.88,5.166,96.405,-0.129508
26.26,360.09,5.164,96.359,-0.263782
26.28,360.31,5.162,96.323,-0.160262
26.31,360.53,5.159,96.274,-0.147382
26.33,360.74,5.157,96.236,-0.408947
26.35,360.96,5.154,96.182,-0.230220
26.37,361.18,5.152,96.139,-0.154893
26.39,361.39,5.150,96.102,-0.162176
26.42,361.61,5.148,96.058,-0.185510
26.44,361.83,5.145,96.009,-0.170014
26.46,362.04,5.143,95.961,-0.346652
26.48,362.26,5.140,95.912,-0.577590
26.50,362.48,5.136,95.846,-0.205931
26.52,362.69,5.133,95.780,-0.129423
26.54,362.91,5.129,95.711,-0.279883
26.57,363.13,5.126,95.660,-0.364838
26.59,363.34,5.124,95.614,-0.144445
26.61,363.56,5.121,95.567,-0.228571
26.63,363.77,5.119,95.514,-0.222894
26.65,363.99,5.116,95.464,-0.399063
26.68,364.21,5.112,95.389,-0.186529
26.70,364.42,5.109,95.335,-0.267192
26.72,364.64,5.106,95.273,-0.192506
26.74,364.86,5.103,95.220,-0.178796
26.76,365.07,5.101,95.184,-0.258766
26.78,365.29,5.096,95.091,-0.226282
26.81,365.51,5.092,95.023,-0.226877
26.83,365.72,5.088,94.951,-0.249496
26.85,365.94,5.086,94.901,-0.202656
26.87,366.16,5.083,94.856,-0.284311
26.89,366.37,5.079,94.772,-0.607344
26.91,366.59,5.075,94.703,-0.578544
26.93,366.81,5.072,94.649,-0.216085
26.96,367.02,5.068,94.579,-0.211352
26.98,367.24,5.065,94.522,-0.367968
27.00,367.46,5.063,94.468,-0.223742
27.02,367.67,5.059,94.409,-0.418330
27.04,367.89,5.056,94.338,-0.197453
27.07,368.11,5.053,94.287,-0.409982
27.09,368.32,5.050,94.236,-0.140110
27.11,368.54,5.046,94.156,-0.413736
27.13,368.76,5.042,94.086,-0.189540
27.15,368.97,5.038,94.015,-0.224685
27.17,369.19,5.035,93.960,-0.229822
27.19,369.41,5.032,93.889,-0.662088
27.22,369.62,5.027,93.809,-0.163080
27.24,369.84,5.024,93.747,-0.275529
27.26,370.06,5.021,93.690,-0.171928
27.28,370.27,5.017,93.624,-0.228968
27.30,370.49,5.013,93.537,-0.343050
27.33,370.70,5.009,93.460,-0.325687
27.35,370.92,5.005,93.391,-0.284959
27.37,371.14,5.001,93.322,-0.788120
27.39,371.35,4.997,93.243,-0.251438
27.41,371.57,4.993,93.163,-0.713130
27.43,371.79,4.989,93.097,-0.209400
27.46,372.00,4.985,93.018,-0.448160
27.48,372.22,4.981,92.944,-0.230746
27.50,372.44,4.977,92.867,-0.275712
27.52,372.65,4.972,92.784,-0.352431
27.54,372.87,4.968,92.707,-0.569976
27.56,373.09,4.964,92.627,-0.178397
27.58,373.30,4.960,92.549,-0.119065
27.61,373.52,4.955,92.461,-0.218050
27.63,373.74,4.952,92.401,-0.456349
27.65,373.95,4.947,92.317,-0.431110
27.67,374.17,4.943,92.241,-0.449494
27.69,374.38,4.940,92.183,-0.264280
27.72,374.60,4.935,92.090,-0.292975
27.74,374.81,4.931,92.012,-0.382481
27.76,375.03,4.927,91.938,-0.363720
27.78,375.24,4.921,91.828,-0.220775
27.80,375.46,4.918,91.775,-0.693566
27.82,375.68,4.913,91.685,-0.476402
27.84,375.89,4.908,91.581,-0.395593
27.87,376.11,4.904,91.503,-0.180070
27.89,376.32,4.900,91.436,-0.227556
27.91,376.54,4.896,91.356,-0.526127
27.93,376.76,4.891,91.263,-0.444790
27.95,376.97,4.887,91.186,-0.358395
27.98,377.19,4.880,91.061,-0.351981
28.00,377.41,4.877,91.004,-0.172272
28.02,377.62,4.873,90.932,-0.720400
28.04,377.84,4.867,90.824,-0.435930
28.06,378.06,4.862,90.735,-0.485598
28.08,378.27,4.858,90.648,-0.710878
28.11,378.49,4.852,90.548,-0.386897
28.13,378.70,4.847,90.444,-0.265953
28.15,378.92,4.843,90.363,-0.377173
28.17,379.14,4.839,90.291,-0.437114
28.19,379.35,4.832,90.169,-0.462941
28.21,379.57,4.828,90.087,-0.510120
28.23,379.79,4.824,90.010,-0.293711
28.26,380.00,4.817,89.890,-0.446709
28.28,380.22,4.812,89.794,-0.491484
28.30,380.44,4.809,89.731,-0.431812
28.32,380.65,4.803,89.631,-0.209432
28.34,380.87,4.799,89.549,-0.813370
28.37,381.09,4.793,89.443,-0.352282
28.39,381.30,4.789,89.363,-0.272735
28.41,381.52,4.784,89.263,-0.497082
28.43,381.74,4.778,89.159,-0.462476
28.45,381.95,4.771,89.030,-0.895085
28.47,382.17,4.766,88.941,-0.397872
28.49,382.39,4.762,88.859,-0.265262
28.52,382.60,4.757,88.772,-0.852920
28.54,382.82,4.750,88.636,-0.538518
28.56,383.04,4.745,88.541,-0.506670
28.58,383.26,4.739,88.426,-0.655794
28.60,383.47,4.735,88.351,-0.699406
28.63,383.69,4.728,88.226,-0.453102
28.65,383.91,4.723,88.140,-0.340980
28.67,384.12,4.718,88.048,-0.390842
28.69,384.34,4.713,87.940,-0.639606
28.71,384.56,4.707,87.829,-0.865529
28.73,384.77,4.702,87.746,-0.579128
28.76,384.99,4.697,87.654,-0.271439
28.78,385.21,4.690,87.521,-0.531231
28.80,385.42,4.685,87.416,-0.284530
28.82,385.64,4.676,87.264,-0.246662
28.84,385.86,4.671,87.169,-0.557450
28.86,386.07,4.667,87.092,-0.551014
28.88,386.29,4.661,86.982,-0.544734
28.91,386.51,4.655,86.866,-0.472536
28.93,386.72,4.650,86.770,-0.417903
28.95,386.94,4.644,86.655,-0.393852
28.97,387.16,4.639,86.569,-0.313828
28.99,387.37,4.632,86.436,-0.546932
29.02,387.59,4.626,86.320,-0.499762
29.04,387.81,4.620,86.202,-0.871933
29.06,388.02,4.613,86.071,-0.355801
29.08,388.24,4.608,85.995,-0.480723
29.10,388.46,4.601,85.847,-0.668771
29.12,388.67,4.596,85.765,-0.486115
29.14,388.89,4.590,85.658,-0.829271
29.17,389.11,4.583,85.520,-0.673921
29.19,389.32,4.577,85.412,-0.720377
29.21,389.54,4.569,85.266,-0.886866
29.23,389.76,4.564,85.168,-0.399954
29.25,389.97,4.558,85.054,-0.708247
29.28,390.19,4.552,84.937,-0.743242
29.30,390.41,4.544,84.797,-0.518286
29.32,390.62,4.540,84.709,-0.568177
29.34,390.84,4.533,84.583,-0.609931
29.36,391.06,4.527,84.473,-0.304205
29.38,391.27,4.518,84.307,-0.445840
29.41,391.49,4.514,84.226,-0.183963
29.43,391.71,4.506,84.092,-0.364794
29.45,391.92,4.499,83.959,-0.344826
29.47,392.14,4.492,83.824,-1.19142
29.49,392.36,4.486,83.706,-0.252427
29.51,392.57,4.478,83.568,-0.703807
29.53,392.79,4.474,83.480,-0.393379
29.56,393.01,4.468,83.371,-0.384634
29.58,393.23,4.458,83.190,-0.570842
29.60,393.44,4.453,83.102,-0.595572
29.62,393.66,4.445,82.949,-0.396460
29.64,393.88,4.438,82.812,-0.514405
29.67,394.09,4.432,82.699,-0.423578
29.69,394.31,4.424,82.550,-0.466163
29.71,394.52,4.418,82.445,-0.615263
29.73,394.74,4.410,82.298,-0.541036
29.75,394.96,4.403,82.166,-0.742710
29.77,395.17,4.396,82.026,-0.655699
29.79,395.39,4.387,81.871,-0.641986
29.82,395.61,4.382,81.778,-0.571401
29.84,395.82,4.376,81.649,-0.822508
29.86,396.04,4.367,81.487,-0.302265
29.88,396.26,4.360,81.363,-0.484266
29.90,396.47,4.352,81.214,-0.854679
29.93,396.69,4.344,81.064,-0.895837
29.95,396.90,4.337,80.934,-0.593653
29.95,396.95,4.336,80.905,-0.645255