File: instrument_data/TGA/Co(phen)2(SCN)2 electromagnet RT-40011142022.csv
Filename,Co(phen)2(SCN)2 electromagnet RT-40011142022
Instrument name,5500-0566 (192.168.10.4)
Operator,Adam K
rundate,11/14/2022
Sample name,Co(phen)2(SCN)2 electromagnet RT-400
proceduresegments,Equilibrate 110.00 °C; Isothermal 1.0 min; Electromagnet On 50.0 %; Ramp 60.00 °C/min to 400.00 °C
[File Parameters]
Run date,11/14/2022 4:16:59 PM
Trios version,5.3.0.48151
Original File Name,C:\ProgramData\TA Instruments\TRIOS\Data\CH302_B3_22_AK\Co(phen)2(SCN)2 electromagnet RT-40011142022.tri
Current File Name,C:/ProgramData/TA Instruments/TRIOS/Data/CH302_B3_22_AK/Co(phen)2(SCN)2 electromagnet RT-40011142022.tri
User at run start,CH-CBWNNF3-0721\ChemLocal
[Procedure]
Procedure Name,
Sample Name,Co(phen)2(SCN)2 electromagnet RT-400
Pan Number,4
Sample Mass,5.824 mg
Pan Type,Aluminum
Comments,
Project Name,Spin Crossover
Operator,Adam K
Test,Custom
Skip Weight Stabilization,False
Sample mass pre-weigh,Not Available
Stop on Gas Flow Error,No
[Signal List]
Signal #1,Time (min)
Signal #2,Temperature (°C)
Signal #3,Weight (mg)
Signal #4,Temperature Difference (°C)
Signal #5,Sample Purge (mL/min)
Signal #6,Balance Purge (mL/min)
Signal #7,Set Point Temperature (°C)
Signal #8,Power Delivered (W)
Signal #9,Ramp Rate (°C/min)
[Configuration]
Company Name,localcc
Instrument Name,5500-0566
Instrument Type,TGA5500
Serial Number,5500-0566
IP,192.168.10.4
Location of Instrument,Olin Hall Rm 364
DisplayType,TianmaV2
Sample Interval ,0.1 s/pt
Gas 1,Nitrogen
Gas 2,Air
Selected Gas Channel,1
MTGA HiRes Licensed,Yes
[Versions]
Common IDD Version,1
Cortex Version,VER 2.1.2.60
Driver,5.0.0.6
GDM Version,1.2.1.2
TouchscreenVersion,1.0.3.1795
PCU Version,1.2.0.15
Transducer Version,1.1.0.32
[Experiment Logs]
Experiment Log Entry # 1,Equilibrate Segment 110 (C) Started
Experiment Log Entry # 3,Isothermal Segment 1 min started
Experiment Log Entry # 5,"Curie Magnet Segment enable 1, 50 %"
Experiment Log Entry # 7,Ramp Segment 60 C/min to 400 C Started
[Method Log]
Method Log Entry # 1,Equilibrate 110 °C
Method Log Entry # 2,Isothermal 1 minutes
Method Log Entry # 3,Electromagnet On 50 %
Method Log Entry # 4,(Ramp 9011) Ramp 60 °C/minute to 400 °C
[Weight Calibration]
Date Applied,7/20/2022 10:21:44 AM
Empty Pan Number,23
Empty Pan Weight,341.358 mg
Low Reference Weight Pan Number,24
Low Reference Weight,442.546 mg
High Reference Weight Pan Number,25
High Reference Weight,"1,243.774 mg"
Low Gain Meter Reading,9.9772E-006 mg/count
High Gain Meter Reading,7.9459E-005 mg/count
Low Meter Offset,31.8759 mg
High Meter Offset,613.7978 mg
[Curie Calibration]
Date Applied,8/11/2021 12:40:46 PM
Description,From 256.990 °C to 456.990 °C at 20.000°C/min
Gas Type,Nitrogen
Pan Type,Platinum (100 uL)
Source Files 1,C:\ProgramData\TA Instruments\TRIOS\Data\Nickel Calibration.tri
Source Files 2,C:\ProgramData\TA Instruments\TRIOS\Data\Alumel Calibration.tri
Measured 1,158.9083
Known 1,154.16
Measured 2,358.1255
Known 2,356.99
[step]
Isothermal 1.0 min
Time,Temperature,Weight,Weight
min,°C,mg,%
0.00,110.16,5.775,99.161
0.00,110.16,5.775,99.160
0.00,110.16,5.775,99.160
0.01,110.17,5.775,99.160
0.01,110.17,5.775,99.160
0.01,110.17,5.775,99.160
0.01,110.17,5.775,99.159
0.01,110.17,5.775,99.159
0.01,110.17,5.775,99.159
0.01,110.17,5.775,99.159
0.02,110.18,5.775,99.159
0.02,110.18,5.775,99.159
0.02,110.18,5.775,99.159
0.02,110.18,5.775,99.159
0.02,110.18,5.775,99.158
0.03,110.18,5.775,99.158
0.03,110.18,5.775,99.158
0.03,110.18,5.775,99.158
0.03,110.19,5.775,99.158
0.03,110.19,5.775,99.157
0.03,110.19,5.775,99.157
0.03,110.19,5.775,99.157
0.04,110.19,5.775,99.157
0.04,110.19,5.775,99.156
0.04,110.19,5.775,99.156
0.04,110.19,5.775,99.156
0.04,110.20,5.775,99.156
0.05,110.20,5.775,99.156
0.05,110.20,5.775,99.156
0.05,110.20,5.775,99.156
0.05,110.20,5.775,99.156
0.05,110.20,5.775,99.156
0.05,110.20,5.775,99.156
0.05,110.20,5.775,99.155
0.06,110.20,5.775,99.155
0.06,110.21,5.775,99.155
0.06,110.21,5.775,99.155
0.06,110.21,5.775,99.155
0.06,110.21,5.775,99.155
0.07,110.21,5.775,99.155
0.07,110.21,5.775,99.155
0.07,110.21,5.775,99.155
0.07,110.21,5.775,99.154
0.07,110.22,5.775,99.154
0.07,110.22,5.775,99.154
0.08,110.22,5.775,99.154
0.08,110.22,5.775,99.154
0.08,110.22,5.775,99.153
0.08,110.22,5.775,99.153
0.08,110.22,5.775,99.153
0.08,110.22,5.775,99.153
0.08,110.22,5.775,99.153
0.09,110.23,5.775,99.153
0.09,110.23,5.775,99.153
0.09,110.23,5.775,99.153
0.09,110.23,5.775,99.153
0.09,110.23,5.775,99.153
0.09,110.23,5.775,99.153
0.10,110.23,5.775,99.153
0.10,110.23,5.775,99.153
0.10,110.23,5.775,99.153
0.10,110.24,5.775,99.153
0.10,110.24,5.775,99.152
0.11,110.24,5.775,99.152
0.11,110.24,5.775,99.152
0.11,110.24,5.775,99.152
0.11,110.24,5.775,99.152
0.11,110.24,5.775,99.152
0.11,110.24,5.775,99.152
0.12,110.24,5.775,99.152
0.12,110.24,5.775,99.151
0.12,110.25,5.775,99.152
0.12,110.25,5.775,99.152
0.12,110.25,5.775,99.152
0.12,110.25,5.775,99.152
0.13,110.25,5.775,99.151
0.13,110.25,5.775,99.151
0.13,110.25,5.775,99.151
0.13,110.25,5.775,99.151
0.13,110.25,5.775,99.151
0.13,110.25,5.775,99.151
0.14,110.26,5.775,99.151
0.14,110.26,5.775,99.151
0.14,110.26,5.775,99.151
0.14,110.26,5.775,99.150
0.14,110.26,5.775,99.150
0.14,110.26,5.775,99.150
0.14,110.26,5.775,99.150
0.15,110.26,5.775,99.150
0.15,110.26,5.775,99.150
0.15,110.26,5.775,99.150
0.15,110.27,5.774,99.150
0.15,110.27,5.774,99.149
0.16,110.27,5.774,99.149
0.16,110.27,5.774,99.149
0.16,110.27,5.774,99.149
0.16,110.27,5.774,99.149
0.16,110.27,5.774,99.149
0.16,110.27,5.774,99.149
0.16,110.27,5.774,99.149
0.17,110.27,5.774,99.148
0.17,110.27,5.774,99.148
0.17,110.28,5.774,99.148
0.17,110.28,5.774,99.148
0.17,110.28,5.774,99.148
0.18,110.28,5.774,99.148
0.18,110.28,5.774,99.148
0.18,110.28,5.774,99.148
0.18,110.28,5.774,99.148
0.18,110.28,5.774,99.147
0.18,110.28,5.774,99.147
0.19,110.28,5.774,99.147
0.19,110.28,5.774,99.147
0.19,110.29,5.774,99.146
0.19,110.29,5.774,99.146
0.19,110.29,5.774,99.146
0.19,110.29,5.774,99.146
0.19,110.29,5.774,99.146
0.20,110.29,5.774,99.146
0.20,110.29,5.774,99.146
0.20,110.29,5.774,99.146
0.20,110.29,5.774,99.145
0.20,110.29,5.774,99.145
0.21,110.29,5.774,99.145
0.21,110.30,5.774,99.146
0.21,110.30,5.774,99.146
0.21,110.30,5.774,99.145
0.21,110.30,5.774,99.145
0.21,110.30,5.774,99.145
0.21,110.30,5.774,99.145
0.22,110.30,5.774,99.145
0.22,110.30,5.774,99.145
0.22,110.30,5.774,99.145
0.22,110.30,5.774,99.144
0.22,110.30,5.774,99.144
0.23,110.30,5.774,99.144
0.23,110.31,5.774,99.144
0.23,110.31,5.774,99.143
0.23,110.31,5.774,99.143
0.23,110.31,5.774,99.143
0.23,110.31,5.774,99.143
0.24,110.31,5.774,99.143
0.24,110.31,5.774,99.143
0.24,110.31,5.774,99.144
0.24,110.31,5.774,99.144
0.24,110.31,5.774,99.143
0.24,110.31,5.774,99.143
0.24,110.31,5.774,99.143
0.25,110.31,5.774,99.142
0.25,110.32,5.774,99.142
0.25,110.32,5.774,99.142
0.25,110.32,5.774,99.142
0.25,110.32,5.774,99.142
0.26,110.32,5.774,99.142
0.26,110.32,5.774,99.141
0.26,110.32,5.774,99.142
0.26,110.32,5.774,99.142
0.26,110.32,5.774,99.142
0.26,110.32,5.774,99.142
0.26,110.32,5.774,99.142
0.27,110.32,5.774,99.141
0.27,110.32,5.774,99.141
0.27,110.33,5.774,99.141
0.27,110.33,5.774,99.141
0.27,110.33,5.774,99.141
0.28,110.33,5.774,99.141
0.28,110.33,5.774,99.141
0.28,110.33,5.774,99.141
0.28,110.33,5.774,99.141
0.28,110.33,5.774,99.141
0.28,110.33,5.774,99.141
0.29,110.33,5.774,99.141
0.29,110.33,5.774,99.141
0.29,110.33,5.774,99.141
0.29,110.33,5.774,99.141
0.29,110.33,5.774,99.141
0.29,110.34,5.774,99.141
0.30,110.34,5.774,99.141
0.30,110.34,5.774,99.141
0.30,110.34,5.774,99.141
0.30,110.34,5.774,99.141
0.30,110.34,5.774,99.141
0.30,110.34,5.774,99.141
0.30,110.34,5.774,99.140
0.31,110.34,5.774,99.140
0.31,110.34,5.774,99.140
0.31,110.34,5.774,99.140
0.31,110.34,5.774,99.140
0.31,110.34,5.774,99.140
0.31,110.34,5.774,99.140
0.32,110.35,5.774,99.140
0.32,110.35,5.774,99.140
0.32,110.35,5.774,99.140
0.32,110.35,5.774,99.140
0.32,110.35,5.774,99.140
0.33,110.35,5.774,99.140
0.33,110.35,5.774,99.140
0.33,110.35,5.774,99.140
0.33,110.35,5.774,99.140
0.33,110.35,5.774,99.140
0.33,110.35,5.774,99.140
0.34,110.35,5.774,99.140
0.34,110.35,5.774,99.140
0.34,110.35,5.774,99.140
0.34,110.35,5.774,99.140
0.34,110.35,5.774,99.139
0.34,110.36,5.774,99.139
0.35,110.36,5.774,99.139
0.35,110.36,5.774,99.139
0.35,110.36,5.774,99.138
0.35,110.36,5.774,99.138
0.35,110.36,5.774,99.138
0.35,110.36,5.774,99.138
0.35,110.36,5.774,99.138
0.36,110.36,5.774,99.138
0.36,110.36,5.774,99.138
0.36,110.36,5.774,99.138
0.36,110.36,5.774,99.138
0.36,110.36,5.774,99.138
0.36,110.36,5.774,99.138
0.37,110.36,5.774,99.138
0.37,110.36,5.774,99.138
0.37,110.36,5.774,99.138
0.37,110.37,5.774,99.138
0.37,110.37,5.774,99.137
0.38,110.37,5.774,99.137
0.38,110.37,5.774,99.137
0.38,110.37,5.774,99.137
0.38,110.37,5.774,99.137
0.38,110.37,5.774,99.137
0.38,110.37,5.774,99.137
0.39,110.37,5.774,99.137
0.39,110.37,5.774,99.136
0.39,110.37,5.774,99.136
0.39,110.37,5.774,99.136
0.39,110.37,5.774,99.136
0.39,110.37,5.774,99.136
0.40,110.37,5.774,99.136
0.40,110.37,5.774,99.136
0.40,110.37,5.774,99.136
0.40,110.37,5.774,99.136
0.40,110.38,5.774,99.135
0.40,110.38,5.774,99.135
0.40,110.38,5.774,99.135
0.41,110.38,5.774,99.135
0.41,110.38,5.774,99.135
0.41,110.38,5.774,99.135
0.41,110.38,5.774,99.135
0.41,110.38,5.774,99.135
0.41,110.38,5.774,99.135
0.42,110.38,5.774,99.134
0.42,110.38,5.774,99.134
0.42,110.38,5.774,99.134
0.42,110.38,5.774,99.134
0.42,110.38,5.774,99.134
0.43,110.38,5.774,99.134
0.43,110.38,5.774,99.134
0.43,110.38,5.774,99.134
0.43,110.38,5.774,99.134
0.43,110.38,5.774,99.134
0.43,110.38,5.774,99.134
0.44,110.39,5.774,99.134
0.44,110.39,5.774,99.134
0.44,110.39,5.774,99.133
0.44,110.39,5.774,99.133
0.44,110.39,5.774,99.133
0.44,110.39,5.774,99.133
0.45,110.39,5.774,99.133
0.45,110.39,5.774,99.133
0.45,110.39,5.774,99.133
0.45,110.39,5.773,99.132
0.45,110.39,5.773,99.132
0.45,110.39,5.773,99.132
0.45,110.39,5.773,99.132
0.46,110.39,5.773,99.132
0.46,110.39,5.773,99.132
0.46,110.39,5.773,99.132
0.46,110.39,5.773,99.132
0.46,110.39,5.773,99.132
0.46,110.39,5.773,99.132
0.47,110.39,5.773,99.132
0.47,110.39,5.773,99.132
0.47,110.39,5.773,99.131
0.47,110.39,5.773,99.131
0.47,110.40,5.773,99.131
0.48,110.40,5.773,99.131
0.48,110.40,5.773,99.131
0.48,110.40,5.773,99.131
0.48,110.40,5.773,99.131
0.48,110.40,5.773,99.131
0.48,110.40,5.773,99.130
0.49,110.40,5.773,99.130
0.49,110.40,5.773,99.130
0.49,110.40,5.773,99.130
0.49,110.40,5.773,99.130
0.49,110.40,5.773,99.130
0.49,110.40,5.773,99.131
0.50,110.40,5.773,99.131
0.50,110.40,5.773,99.131
0.50,110.40,5.773,99.130
0.50,110.40,5.773,99.130
0.50,110.40,5.773,99.130
0.50,110.40,5.773,99.130
0.50,110.40,5.773,99.130
0.51,110.40,5.773,99.130
0.51,110.40,5.773,99.131
0.51,110.40,5.773,99.131
0.51,110.40,5.773,99.131
0.51,110.40,5.773,99.131
0.51,110.40,5.773,99.130
0.52,110.41,5.773,99.130
0.52,110.41,5.773,99.130
0.52,110.41,5.773,99.130
0.52,110.41,5.773,99.130
0.52,110.41,5.773,99.130
0.53,110.41,5.773,99.130
0.53,110.41,5.773,99.130
0.53,110.41,5.773,99.130
0.53,110.41,5.773,99.129
0.53,110.41,5.773,99.129
0.53,110.41,5.773,99.129
0.53,110.41,5.773,99.129
0.54,110.41,5.773,99.129
0.54,110.41,5.773,99.129
0.54,110.41,5.773,99.129
0.54,110.41,5.773,99.129
0.54,110.41,5.773,99.129
0.55,110.41,5.773,99.128
0.55,110.41,5.773,99.128
0.55,110.41,5.773,99.128
0.55,110.41,5.773,99.128
0.55,110.41,5.773,99.128
0.55,110.41,5.773,99.128
0.55,110.41,5.773,99.128
0.56,110.41,5.773,99.128
0.56,110.41,5.773,99.128
0.56,110.41,5.773,99.128
0.56,110.41,5.773,99.127
0.56,110.41,5.773,99.127
0.57,110.41,5.773,99.127
0.57,110.41,5.773,99.127
0.57,110.42,5.773,99.127
0.57,110.42,5.773,99.127
0.57,110.42,5.773,99.127
0.57,110.42,5.773,99.127
0.58,110.42,5.773,99.127
0.58,110.42,5.773,99.127
0.58,110.42,5.773,99.126
0.58,110.42,5.773,99.127
0.58,110.42,5.773,99.127
0.58,110.42,5.773,99.127
0.58,110.42,5.773,99.127
0.59,110.42,5.773,99.127
0.59,110.42,5.773,99.126
0.59,110.42,5.773,99.126
0.59,110.42,5.773,99.127
0.59,110.42,5.773,99.127
0.60,110.42,5.773,99.127
0.60,110.42,5.773,99.127
0.60,110.42,5.773,99.126
0.60,110.42,5.773,99.126
0.60,110.42,5.773,99.126
0.60,110.42,5.773,99.126
0.60,110.42,5.773,99.126
0.61,110.42,5.773,99.126
0.61,110.42,5.773,99.126
0.61,110.42,5.773,99.126
0.61,110.42,5.773,99.126
0.61,110.42,5.773,99.126
0.62,110.42,5.773,99.126
0.62,110.42,5.773,99.126
0.62,110.42,5.773,99.126
0.62,110.42,5.773,99.126
0.62,110.42,5.773,99.126
0.62,110.42,5.773,99.126
0.63,110.42,5.773,99.126
0.63,110.42,5.773,99.126
0.63,110.42,5.773,99.127
0.63,110.42,5.773,99.127
0.63,110.43,5.773,99.127
0.63,110.43,5.773,99.127
0.63,110.43,5.773,99.126
0.64,110.43,5.773,99.126
0.64,110.43,5.773,99.126
0.64,110.43,5.773,99.126
0.64,110.43,5.773,99.126
0.64,110.43,5.773,99.126
0.65,110.43,5.773,99.126
0.65,110.43,5.773,99.126
0.65,110.43,5.773,99.126
0.65,110.43,5.773,99.126
0.65,110.43,5.773,99.126
0.65,110.43,5.773,99.126
0.65,110.43,5.773,99.125
0.66,110.43,5.773,99.125
0.66,110.43,5.773,99.125
0.66,110.43,5.773,99.125
0.66,110.43,5.773,99.125
0.66,110.43,5.773,99.125
0.67,110.43,5.773,99.125
0.67,110.43,5.773,99.125
0.67,110.43,5.773,99.125
0.67,110.43,5.773,99.125
0.67,110.43,5.773,99.125
0.67,110.43,5.773,99.125
0.68,110.43,5.773,99.125
0.68,110.43,5.773,99.125
0.68,110.43,5.773,99.124
0.68,110.43,5.773,99.124
0.68,110.43,5.773,99.124
0.68,110.43,5.773,99.124
0.68,110.43,5.773,99.124
0.69,110.43,5.773,99.124
0.69,110.43,5.773,99.124
0.69,110.43,5.773,99.124
0.69,110.43,5.773,99.124
0.69,110.43,5.773,99.124
0.70,110.43,5.773,99.124
0.70,110.43,5.773,99.124
0.70,110.43,5.773,99.124
0.70,110.43,5.773,99.124
0.70,110.43,5.773,99.124
0.70,110.43,5.773,99.124
0.70,110.43,5.773,99.124
0.71,110.43,5.773,99.124
0.71,110.43,5.773,99.123
0.71,110.43,5.773,99.123
0.71,110.43,5.773,99.123
0.71,110.43,5.773,99.123
0.72,110.43,5.773,99.123
0.72,110.43,5.773,99.122
0.72,110.43,5.773,99.123
0.72,110.43,5.773,99.123
0.72,110.43,5.773,99.123
0.72,110.44,5.773,99.123
0.73,110.44,5.773,99.123
0.73,110.44,5.773,99.123
0.73,110.44,5.773,99.123
0.73,110.44,5.773,99.124
0.73,110.44,5.773,99.124
0.73,110.44,5.773,99.123
0.73,110.44,5.773,99.123
0.74,110.44,5.773,99.123
0.74,110.44,5.773,99.123
0.74,110.44,5.773,99.123
0.74,110.44,5.773,99.123
0.74,110.44,5.773,99.123
0.75,110.44,5.773,99.123
0.75,110.44,5.773,99.123
0.75,110.44,5.773,99.123
0.75,110.44,5.773,99.123
0.75,110.44,5.773,99.123
0.75,110.44,5.773,99.122
0.75,110.44,5.773,99.122
0.76,110.44,5.773,99.122
0.76,110.44,5.773,99.122
0.76,110.44,5.773,99.122
0.76,110.44,5.773,99.122
0.76,110.44,5.773,99.122
0.77,110.44,5.773,99.122
0.77,110.44,5.773,99.122
0.77,110.44,5.773,99.122
0.77,110.44,5.773,99.121
0.77,110.44,5.773,99.121
0.77,110.44,5.773,99.121
0.78,110.44,5.773,99.121
0.78,110.44,5.773,99.121
0.78,110.44,5.773,99.121
0.78,110.44,5.773,99.121
0.78,110.44,5.773,99.121
0.78,110.44,5.773,99.121
0.78,110.44,5.773,99.121
0.79,110.44,5.773,99.121
0.79,110.44,5.773,99.121
0.79,110.44,5.773,99.121
0.79,110.44,5.773,99.121
0.79,110.44,5.773,99.121
0.80,110.44,5.773,99.121
0.80,110.44,5.773,99.121
0.80,110.44,5.773,99.121
0.80,110.44,5.773,99.121
0.80,110.44,5.773,99.121
0.80,110.44,5.773,99.120
0.80,110.44,5.773,99.120
0.81,110.44,5.773,99.120
0.81,110.44,5.773,99.120
0.81,110.44,5.773,99.120
0.81,110.44,5.773,99.120
0.81,110.44,5.773,99.120
0.82,110.44,5.773,99.119
0.82,110.44,5.773,99.119
0.82,110.44,5.773,99.119
0.82,110.44,5.773,99.119
0.82,110.44,5.773,99.119
0.82,110.44,5.773,99.120
0.83,110.44,5.773,99.120
0.83,110.44,5.773,99.120
0.83,110.44,5.773,99.120
0.83,110.44,5.773,99.119
0.83,110.44,5.773,99.119
0.83,110.44,5.773,99.119
0.83,110.44,5.773,99.119
0.84,110.44,5.773,99.119
0.84,110.44,5.773,99.119
0.84,110.44,5.773,99.119
0.84,110.44,5.773,99.119
0.84,110.44,5.773,99.119
0.85,110.44,5.773,99.119
0.85,110.44,5.773,99.119
0.85,110.44,5.773,99.119
0.85,110.44,5.773,99.119
0.85,110.44,5.773,99.119
0.85,110.44,5.773,99.119
0.85,110.44,5.773,99.119
0.86,110.44,5.773,99.119
0.86,110.44,5.773,99.119
0.86,110.44,5.773,99.119
0.86,110.44,5.773,99.119
0.86,110.44,5.773,99.119
0.87,110.44,5.773,99.119
0.87,110.44,5.773,99.119
0.87,110.44,5.773,99.118
0.87,110.44,5.773,99.118
0.87,110.44,5.773,99.118
0.87,110.44,5.773,99.118
0.88,110.44,5.773,99.118
0.88,110.44,5.773,99.118
0.88,110.44,5.773,99.118
0.88,110.44,5.773,99.118
0.88,110.44,5.773,99.118
0.88,110.44,5.773,99.118
0.88,110.44,5.773,99.117
0.89,110.44,5.773,99.117
0.89,110.44,5.773,99.118
0.89,110.44,5.773,99.118
0.89,110.44,5.773,99.118
0.89,110.44,5.773,99.118
0.90,110.44,5.773,99.117
0.90,110.44,5.773,99.117
0.90,110.44,5.773,99.117
0.90,110.44,5.773,99.117
0.90,110.44,5.773,99.117
0.90,110.44,5.773,99.117
0.90,110.44,5.773,99.117
0.91,110.44,5.773,99.117
0.91,110.44,5.773,99.118
0.91,110.44,5.773,99.118
0.91,110.44,5.773,99.118
0.91,110.44,5.773,99.118
0.92,110.44,5.773,99.118
0.92,110.44,5.773,99.118
0.92,110.44,5.773,99.118
0.92,110.44,5.773,99.118
0.92,110.44,5.773,99.117
0.92,110.44,5.773,99.117
0.93,110.44,5.773,99.117
0.93,110.44,5.773,99.117
0.93,110.44,5.773,99.117
0.93,110.44,5.773,99.117
0.93,110.44,5.773,99.117
0.93,110.44,5.773,99.117
0.93,110.44,5.773,99.118
0.94,110.44,5.773,99.117
0.94,110.44,5.773,99.117
0.94,110.44,5.773,99.117
0.94,110.44,5.773,99.117
0.94,110.44,5.773,99.117
0.95,110.44,5.773,99.116
0.95,110.44,5.773,99.116
0.95,110.44,5.773,99.116
0.95,110.44,5.773,99.116
0.95,110.44,5.773,99.116
0.95,110.44,5.773,99.116
0.95,110.44,5.773,99.116
0.96,110.44,5.773,99.117
0.96,110.44,5.773,99.116
0.96,110.44,5.773,99.116
0.96,110.44,5.773,99.116
0.96,110.44,5.773,99.116
0.97,110.44,5.773,99.116
0.97,110.44,5.773,99.116
0.97,110.44,5.773,99.116
0.97,110.44,5.773,99.116
0.97,110.44,5.773,99.116
0.97,110.44,5.773,99.116
0.98,110.44,5.773,99.116
0.98,110.44,5.773,99.116
0.98,110.44,5.773,99.116
0.98,110.44,5.773,99.116
0.98,110.44,5.773,99.116
0.98,110.44,5.773,99.115
0.98,110.44,5.773,99.115
0.99,110.44,5.772,99.115
0.99,110.44,5.772,99.115
0.99,110.44,5.772,99.115
0.99,110.44,5.772,99.115
0.99,110.44,5.772,99.115
1.00,110.44,5.772,99.115
1.00,110.44,5.773,99.115
1.00,110.44,5.772,99.115

[step]
Ramp 60.00 °C/min to 400.00 °C
Time,Temperature,Weight,Weight,Deriv. Weight
min,°C,mg,%,% / °C
1.00,110.44,5.772,99.115,-1499.63
1.00,110.44,5.804,99.648,-8338.67
1.01,110.44,5.855,100.536,-6623.53
1.02,110.44,5.877,100.903,3055.40
1.02,110.44,5.886,101.061,352.683
1.03,110.44,5.890,101.130,46.6324
1.03,110.44,5.890,101.133,17.7042
1.03,110.44,5.890,101.137,-16.4697
1.04,110.45,5.890,101.134,9.06109
1.05,110.45,5.890,101.136,-5.26383
1.05,110.45,5.890,101.130,1.05843
1.05,110.46,5.890,101.128,1.02815
1.06,110.47,5.890,101.134,-1.09044
1.07,110.48,5.890,101.127,0.370639
1.07,110.49,5.890,101.136,0.319459
1.08,110.51,5.890,101.141,0.404926
1.08,110.53,5.891,101.143,0.0834781
1.08,110.55,5.891,101.146,0.0358312
1.09,110.58,5.891,101.146,0.0125504
1.09,110.61,5.891,101.146,0.0127089
1.10,110.64,5.891,101.147,-0.0821108
1.11,110.68,5.891,101.142,-0.104257
1.11,110.72,5.890,101.140,0.0179364
1.12,110.77,5.890,101.140,-3.28354e-3
1.12,110.82,5.890,101.140,0.0113511
1.13,110.88,5.891,101.142,0.0178495
1.13,110.94,5.890,101.141,-0.0193227
1.13,111.01,5.890,101.141,5.45464e-3
1.14,111.08,5.890,101.141,7.39433e-3
1.14,111.16,5.891,101.142,9.42719e-3
1.15,111.24,5.891,101.142,2.83555e-3
1.16,111.33,5.891,101.143,8.19241e-3
1.16,111.42,5.891,101.143,4.95880e-3
1.17,111.52,5.891,101.144,-5.37144e-3
1.17,111.62,5.891,101.143,7.29693e-4
1.18,111.73,5.891,101.143,1.60407e-3
1.18,111.84,5.891,101.143,2.10547e-3
1.18,111.96,5.891,101.143,-2.25772e-3
1.19,112.08,5.891,101.143,-1.53867e-3
1.19,112.20,5.891,101.143,3.24699e-5
1.20,112.33,5.891,101.143,3.18103e-4
1.21,112.47,5.891,101.143,-1.41196e-3
1.21,112.61,5.891,101.143,-2.52765e-3
1.22,112.75,5.891,101.143,6.44754e-4
1.22,112.90,5.891,101.143,-3.08718e-4
1.23,113.05,5.891,101.143,1.31223e-3
1.23,113.21,5.891,101.143,2.30490e-4
1.23,113.37,5.891,101.143,-1.03522e-3
1.24,113.53,5.891,101.142,-1.52021e-3
1.24,113.70,5.891,101.143,-5.06790e-4
1.25,113.87,5.891,101.142,2.15302e-4
1.26,114.04,5.891,101.142,-6.38698e-4
1.26,114.22,5.891,101.142,-1.45017e-3
1.27,114.40,5.891,101.142,-2.14880e-3
1.27,114.59,5.890,101.141,-1.37005e-3
1.28,114.77,5.890,101.141,-8.35338e-4
1.28,114.97,5.890,101.141,-5.05413e-3
1.28,115.16,5.890,101.140,-4.43192e-3
1.29,115.36,5.890,101.139,-8.22915e-4
1.29,115.56,5.890,101.139,1.69203e-3
1.30,115.77,5.890,101.140,-5.02807e-4
1.31,115.97,5.890,101.139,-2.68929e-3
1.31,116.18,5.890,101.139,3.77534e-4
1.32,116.40,5.890,101.139,-2.60925e-3
1.32,116.61,5.890,101.138,-2.98305e-3
1.33,116.83,5.890,101.137,-2.47768e-3
1.33,117.05,5.890,101.137,-3.06210e-4
1.33,117.28,5.890,101.137,-9.82261e-4
1.34,117.51,5.890,101.137,-2.72246e-3
1.34,117.74,5.890,101.136,-4.00788e-3
1.35,117.97,5.890,101.135,-2.97611e-3
1.36,118.20,5.890,101.134,-1.14261e-3
1.36,118.44,5.890,101.134,-1.67196e-3
1.37,118.68,5.890,101.134,2.10326e-4
1.37,118.92,5.890,101.134,-3.23556e-3
1.38,119.17,5.890,101.133,-2.77637e-3
1.38,119.41,5.890,101.132,-1.07579e-3
1.38,119.66,5.890,101.132,-2.07234e-3
1.39,119.91,5.890,101.131,-3.89479e-3
1.39,120.16,5.890,101.130,-4.03970e-3
1.40,120.41,5.890,101.129,-1.48815e-3
1.41,120.67,5.890,101.130,-7.72631e-4
1.41,120.92,5.890,101.129,-2.04132e-3
1.42,121.18,5.890,101.128,-1.49930e-3
1.42,121.44,5.890,101.128,-2.18052e-3
1.43,121.70,5.890,101.127,-2.05548e-3
1.43,121.96,5.890,101.127,-4.72026e-4
1.43,122.22,5.890,101.127,-2.44820e-3
1.44,122.49,5.890,101.126,-3.92127e-3
1.44,122.75,5.890,101.125,-4.14022e-3
1.45,123.02,5.889,101.124,-1.89449e-3
1.46,123.28,5.889,101.124,-2.28401e-3
1.46,123.55,5.889,101.123,-1.29178e-3
1.47,123.82,5.889,101.123,-5.89441e-4
1.47,124.09,5.889,101.122,-2.63724e-3
1.48,124.36,5.889,101.122,-2.20643e-3
1.48,124.63,5.889,101.121,-3.33431e-3
1.48,124.90,5.889,101.120,-2.96279e-3
1.49,125.17,5.889,101.119,-4.21001e-3
1.49,125.44,5.889,101.118,-4.83757e-3
1.50,125.71,5.889,101.117,-1.77605e-3
1.51,125.99,5.889,101.116,-2.69147e-3
1.51,126.26,5.889,101.116,-1.69233e-3
1.52,126.54,5.889,101.115,-2.65352e-3
1.52,126.81,5.889,101.114,-1.35233e-3
1.53,127.09,5.889,101.114,-2.86453e-3
1.53,127.36,5.889,101.113,-2.56795e-3
1.53,127.64,5.889,101.112,-3.87173e-3
1.54,127.92,5.889,101.111,-3.68896e-3
1.54,128.20,5.889,101.111,-2.22159e-3
1.55,128.48,5.889,101.110,-2.83729e-3
1.56,128.76,5.889,101.109,-1.38645e-3
1.56,129.04,5.889,101.109,-1.96875e-3
1.57,129.32,5.889,101.108,-1.70417e-3
1.57,129.60,5.889,101.108,-2.11285e-3
1.58,129.89,5.889,101.107,-1.92212e-3
1.58,130.17,5.888,101.106,-2.48152e-3
1.58,130.45,5.888,101.106,-3.53672e-3
1.59,130.74,5.888,101.105,-2.17316e-3
1.59,131.03,5.888,101.104,-3.08851e-3
1.60,131.31,5.888,101.103,-1.70024e-3
1.61,131.60,5.888,101.103,-2.38245e-3
1.61,131.89,5.888,101.102,-2.34553e-3
1.62,132.17,5.888,101.101,-2.26997e-3
1.62,132.46,5.888,101.101,-2.35297e-3
1.63,132.75,5.888,101.100,-1.68461e-3
1.63,133.04,5.888,101.100,-2.58267e-3
1.63,133.33,5.888,101.099,-2.97295e-3
1.64,133.62,5.888,101.098,-3.05593e-3
1.64,133.91,5.888,101.097,-5.23126e-3
1.65,134.20,5.888,101.096,-2.10594e-3
1.66,134.50,5.888,101.095,-2.81028e-3
1.66,134.79,5.888,101.094,-1.32551e-3
1.67,135.08,5.888,101.094,-7.68275e-4
1.67,135.37,5.888,101.093,-3.60347e-3
1.68,135.66,5.888,101.092,-2.45061e-3
1.68,135.96,5.888,101.092,-2.55935e-3
1.68,136.25,5.888,101.091,-3.42713e-3
1.69,136.54,5.887,101.090,-3.97366e-3
1.69,136.83,5.887,101.089,-2.84684e-3
1.70,137.13,5.887,101.088,-7.11605e-4
1.71,137.42,5.887,101.088,-1.85317e-3
1.71,137.71,5.887,101.087,-1.37608e-3
1.72,138.00,5.887,101.087,-3.02571e-3
1.72,138.30,5.887,101.086,-2.68157e-3
1.73,138.59,5.887,101.085,-3.36158e-3
1.73,138.88,5.887,101.084,-3.51755e-3
1.73,139.18,5.887,101.083,-3.51717e-3
1.74,139.47,5.887,101.082,-2.50851e-3
1.74,139.76,5.887,101.081,-3.21134e-3
1.75,140.05,5.887,101.080,-3.65570e-3
1.76,140.35,5.887,101.079,-3.67013e-3
1.76,140.64,5.887,101.078,-3.38786e-3
1.77,140.93,5.887,101.077,-1.81025e-3
1.77,141.23,5.887,101.077,-2.44092e-3
1.78,141.52,5.887,101.076,-2.35363e-3
1.78,141.81,5.887,101.076,-1.12156e-3
1.78,142.11,5.887,101.075,-2.03135e-3
1.79,142.40,5.887,101.074,-2.37195e-3
1.79,142.70,5.887,101.073,-3.11589e-3
1.80,142.99,5.886,101.073,-2.29785e-3
1.81,143.29,5.886,101.072,-2.33450e-3
1.81,143.58,5.886,101.071,-2.52571e-3
1.82,143.88,5.886,101.071,-2.81740e-3
1.82,144.17,5.886,101.070,-2.65971e-3
1.83,144.47,5.886,101.069,-1.99265e-3
1.83,144.77,5.886,101.068,-2.38443e-3
1.83,145.06,5.886,101.068,-3.48393e-3
1.84,145.36,5.886,101.066,-5.62905e-3
1.84,145.66,5.886,101.064,-3.58475e-3
1.85,145.96,5.886,101.064,-2.13660e-3
1.86,146.25,5.886,101.063,-2.36514e-3
1.86,146.55,5.886,101.063,-1.23546e-3
1.87,146.85,5.886,101.062,-2.17005e-3
1.87,147.15,5.886,101.061,-1.96942e-3
1.88,147.45,5.886,101.061,-1.02630e-3
1.88,147.75,5.886,101.061,-2.22771e-3
1.88,148.05,5.886,101.060,-3.57374e-3
1.89,148.34,5.886,101.059,-2.02750e-3
1.89,148.64,5.886,101.058,-3.22023e-3
1.90,148.94,5.886,101.057,-2.92934e-3
1.91,149.24,5.886,101.056,-2.89866e-3
1.91,149.54,5.885,101.055,-2.87593e-3
1.92,149.84,5.885,101.055,-2.11903e-3
1.92,150.14,5.885,101.054,-1.89762e-3
1.93,150.44,5.885,101.053,-3.05394e-3
1.93,150.74,5.885,101.052,-2.51915e-3
1.93,151.04,5.885,101.052,-1.50901e-3
1.94,151.34,5.885,101.052,-1.56327e-3
1.94,151.63,5.885,101.050,-4.24717e-3
1.95,151.93,5.885,101.049,-4.21859e-3
1.96,152.23,5.885,101.048,-2.96973e-3
1.96,152.53,5.885,101.047,-2.46441e-3
1.97,152.83,5.885,101.047,-1.35191e-3
1.97,153.12,5.885,101.046,-2.07483e-3
1.98,153.42,5.885,101.046,-1.76034e-3
1.98,153.72,5.885,101.045,-1.93030e-3
1.98,154.02,5.885,101.044,-2.55406e-3
1.99,154.32,5.885,101.044,-2.16996e-3
1.99,154.61,5.885,101.043,-2.54740e-3
2.00,154.91,5.885,101.042,-2.84791e-3
2.01,155.21,5.885,101.041,-2.23995e-3
2.01,155.50,5.885,101.041,-2.22429e-3
2.02,155.80,5.885,101.040,-3.62477e-3
2.02,156.10,5.885,101.039,-2.52364e-3
2.03,156.40,5.884,101.038,-4.28431e-3
2.03,156.69,5.884,101.037,-2.98315e-3
2.03,156.99,5.884,101.036,-1.14499e-3
2.04,157.29,5.884,101.036,-1.65913e-3
2.04,157.59,5.884,101.035,-1.75019e-3
2.05,157.89,5.884,101.035,-2.24777e-3
2.06,158.19,5.884,101.034,-1.53334e-3
2.06,158.48,5.884,101.034,-1.67768e-3
2.07,158.78,5.884,101.033,-2.31970e-3
2.07,159.08,5.884,101.032,-3.05232e-3
2.08,159.38,5.884,101.032,-1.43721e-3
2.08,159.68,5.884,101.031,-9.32038e-4
2.08,159.98,5.884,101.031,-2.02297e-3
2.09,160.28,5.884,101.030,-2.55589e-3
2.09,160.58,5.884,101.030,-5.94604e-4
2.10,160.88,5.884,101.030,-1.66128e-3
2.11,161.18,5.884,101.029,-3.24460e-3
2.11,161.48,5.884,101.028,-2.75599e-3
2.12,161.78,5.884,101.027,-4.33792e-3
2.12,162.08,5.884,101.026,-2.19126e-3
2.13,162.38,5.884,101.025,-1.64314e-3
2.13,162.69,5.884,101.025,-5.70488e-4
2.14,162.99,5.884,101.024,-2.86767e-3
2.14,163.29,5.884,101.023,-3.84147e-3
2.14,163.59,5.884,101.022,-2.78453e-3
2.15,163.89,5.884,101.021,-2.52633e-3
2.16,164.19,5.883,101.021,-2.39762e-3
2.16,164.49,5.883,101.020,-3.00747e-3
2.16,164.79,5.883,101.019,-2.22422e-3
2.17,165.09,5.883,101.018,-3.94779e-3
2.18,165.39,5.883,101.017,-2.92811e-3
2.18,165.69,5.883,101.016,-1.72432e-3
2.19,165.99,5.883,101.016,-1.53431e-3
2.19,166.29,5.883,101.015,-1.00065e-3
2.19,166.59,5.883,101.015,-1.99475e-3
2.20,166.89,5.883,101.014,-2.55440e-3
2.21,167.19,5.883,101.014,-2.25739e-3
2.21,167.49,5.883,101.013,-1.72252e-3
2.21,167.79,5.883,101.012,-3.10975e-3
2.22,168.09,5.883,101.012,-1.90031e-3
2.23,168.38,5.883,101.011,-4.41533e-3
2.23,168.68,5.883,101.009,-4.34788e-3
2.24,168.98,5.883,101.008,-2.11696e-3
2.24,169.28,5.883,101.008,-1.01252e-3
2.24,169.58,5.883,101.007,-4.42640e-3
2.25,169.88,5.883,101.006,-1.21204e-3
2.26,170.17,5.883,101.006,-2.83042e-3
2.26,170.47,5.883,101.005,-3.13651e-3
2.26,170.77,5.883,101.004,-1.31102e-3
2.27,171.07,5.882,101.004,-3.10394e-3
2.28,171.37,5.882,101.002,-3.48560e-3
2.28,171.67,5.882,101.001,-2.04437e-3
2.29,171.97,5.882,101.001,-6.88862e-4
2.29,172.27,5.882,101.001,-1.39192e-3
2.29,172.57,5.882,101.001,-1.55924e-3
2.30,172.86,5.882,101.000,-1.09997e-3
2.31,173.16,5.882,101.000,-2.74819e-3
2.31,173.46,5.882,100.998,-4.37860e-3
2.31,173.76,5.882,100.997,-3.36957e-3
2.32,174.07,5.882,100.996,-2.39228e-3
2.33,174.37,5.882,100.995,-3.32727e-3
2.33,174.67,5.882,100.995,-8.59906e-4
2.34,174.97,5.882,100.995,-1.59720e-3
2.34,175.27,5.882,100.994,-3.46690e-3
2.34,175.57,5.882,100.993,-2.45465e-3
2.35,175.87,5.882,100.992,-1.99813e-3
2.36,176.17,5.882,100.992,-3.87361e-4
2.36,176.47,5.882,100.991,-2.40753e-3
2.36,176.77,5.882,100.991,-1.72388e-3
2.37,177.08,5.882,100.990,-7.59400e-4
2.38,177.38,5.882,100.990,1.74649e-4
2.38,177.68,5.882,100.990,-2.26370e-3
2.39,177.98,5.882,100.989,-4.75643e-3
2.39,178.28,5.882,100.988,-3.46611e-3
2.39,178.58,5.882,100.987,-2.74501e-3
2.40,178.88,5.881,100.986,-2.09964e-3
2.41,179.18,5.881,100.985,-2.29082e-3
2.41,179.48,5.881,100.985,-4.49312e-4
2.41,179.79,5.881,100.985,-1.37143e-4
2.42,180.09,5.881,100.985,-2.50075e-3
2.43,180.39,5.881,100.984,-2.09816e-3
2.43,180.69,5.881,100.983,-1.16814e-3
2.44,180.99,5.881,100.983,-1.13055e-3
2.44,181.28,5.881,100.983,-8.33233e-4
2.44,181.58,5.881,100.982,-1.71310e-3
2.45,181.88,5.881,100.982,-4.39239e-3
2.46,182.18,5.881,100.980,-4.12645e-3
2.46,182.48,5.881,100.979,-1.72328e-3
2.46,182.78,5.881,100.979,-2.84249e-3
2.47,183.08,5.881,100.978,-3.37941e-3
2.48,183.38,5.881,100.977,-3.00429e-3
2.48,183.68,5.881,100.976,-1.41802e-3
2.49,183.97,5.881,100.975,-3.59486e-3
2.49,184.27,5.881,100.974,-2.81283e-3
2.49,184.57,5.881,100.974,-2.98892e-4
2.50,184.87,5.881,100.974,-2.00750e-3
2.51,185.17,5.881,100.973,-3.76071e-3
2.51,185.47,5.881,100.972,-3.67505e-3
2.51,185.77,5.881,100.971,-3.04584e-3
2.52,186.07,5.881,100.970,-2.92186e-3
2.53,186.37,5.880,100.969,-2.47681e-3
2.53,186.66,5.880,100.968,-1.55859e-3
2.54,186.96,5.880,100.968,-1.86302e-3
2.54,187.26,5.880,100.967,-1.49556e-3
2.54,187.56,5.880,100.967,-1.35738e-3
2.55,187.86,5.880,100.966,-1.72229e-3
2.56,188.17,5.880,100.966,-3.01626e-3
2.56,188.47,5.880,100.965,-1.91061e-3
2.56,188.77,5.880,100.964,-2.41194e-3
2.57,189.07,5.880,100.964,-2.65421e-3
2.58,189.37,5.880,100.963,-1.20867e-3
2.58,189.67,5.880,100.962,-1.98336e-3
2.59,189.97,5.880,100.962,-2.29422e-3
2.59,190.27,5.880,100.961,-1.91392e-3
2.59,190.57,5.880,100.961,-2.62759e-3
2.60,190.87,5.880,100.960,-2.58938e-3
2.61,191.18,5.880,100.959,-2.52873e-3
2.61,191.48,5.880,100.958,-2.84818e-3
2.61,191.78,5.880,100.957,-1.73191e-3
2.62,192.08,5.880,100.957,-2.00592e-3
2.63,192.38,5.880,100.957,-1.29156e-4
2.63,192.68,5.880,100.956,-2.72228e-3
2.64,192.98,5.880,100.955,-2.66280e-3
2.64,193.28,5.880,100.954,-3.63084e-3
2.64,193.58,5.880,100.953,-2.68093e-3
2.65,193.89,5.880,100.953,-3.73398e-3
2.66,194.19,5.879,100.951,-2.68413e-3
2.66,194.49,5.879,100.951,-1.89972e-3
2.66,194.79,5.879,100.950,-3.31339e-3
2.67,195.09,5.879,100.949,-2.19238e-3
2.68,195.38,5.879,100.949,-1.71977e-3
2.68,195.68,5.879,100.948,-1.82012e-3
2.69,195.98,5.879,100.948,-1.95878e-3
2.69,196.28,5.879,100.946,-6.02363e-3
2.69,196.58,5.879,100.945,-3.02477e-3
2.70,196.88,5.879,100.944,-1.21030e-3
2.71,197.18,5.879,100.944,8.35143e-4
2.71,197.48,5.879,100.944,-1.54022e-3
2.71,197.78,5.879,100.943,-1.79325e-3
2.72,198.08,5.879,100.943,-1.10359e-3
2.73,198.37,5.879,100.943,1.76239e-4
2.73,198.67,5.879,100.943,-2.09161e-3
2.74,198.97,5.879,100.942,-4.87898e-3
2.74,199.27,5.879,100.941,-3.43030e-3
2.74,199.57,5.879,100.940,-2.01283e-3
2.75,199.87,5.879,100.939,-1.51471e-3
2.76,200.17,5.879,100.939,-2.43912e-3
2.76,200.47,5.879,100.938,-1.68120e-3
2.76,200.77,5.879,100.938,-7.48514e-4
2.77,201.07,5.879,100.937,-4.86214e-3
2.78,201.37,5.878,100.935,-5.45381e-3
2.78,201.67,5.878,100.934,-1.99719e-3
2.79,201.97,5.878,100.934,-6.32289e-4
2.79,202.27,5.878,100.934,-2.07871e-3
2.79,202.57,5.878,100.933,-2.11560e-3
2.80,202.87,5.878,100.933,6.69309e-4
2.81,203.17,5.878,100.932,-1.20894e-3
2.81,203.47,5.878,100.932,-1.01077e-3
2.81,203.77,5.878,100.932,-1.83881e-3
2.82,204.07,5.878,100.931,-1.28382e-3
2.83,204.37,5.878,100.931,-8.73466e-4
2.83,204.68,5.878,100.931,-1.66325e-3
2.84,204.98,5.878,100.930,-3.06836e-3
2.84,205.28,5.878,100.929,-4.30687e-3
2.84,205.58,5.878,100.928,-3.51743e-3
2.85,205.88,5.878,100.926,-2.40898e-3
2.86,206.18,5.878,100.926,-1.94586e-3
2.86,206.48,5.878,100.925,-3.25412e-3
2.86,206.78,5.878,100.925,-8.36675e-4
2.87,207.09,5.878,100.924,-9.58895e-4
2.88,207.39,5.878,100.924,-7.00432e-4
2.88,207.69,5.878,100.924,-1.04370e-3
2.89,207.99,5.878,100.924,-3.12510e-3
2.89,208.29,5.878,100.922,-3.69905e-3
2.89,208.59,5.878,100.922,-1.98359e-4
2.90,208.89,5.878,100.921,-2.34395e-3
2.91,209.19,5.878,100.921,-1.96321e-3
2.91,209.49,5.878,100.920,-4.17319e-3
2.91,209.79,5.878,100.919,-9.78741e-4
2.92,210.08,5.878,100.918,-2.48623e-3
2.93,210.38,5.877,100.918,-2.75503e-3
2.93,210.68,5.877,100.917,-2.82481e-3
2.94,210.98,5.877,100.916,-2.58808e-3
2.94,211.28,5.877,100.915,-2.40473e-3
2.94,211.58,5.877,100.915,-2.10631e-3
2.95,211.88,5.877,100.914,-1.71562e-3
2.96,212.18,5.877,100.914,-1.98364e-3
2.96,212.48,5.877,100.913,-3.10895e-3
2.96,212.78,5.877,100.912,-2.04399e-3
2.97,213.07,5.877,100.911,-2.38788e-3
2.98,213.37,5.877,100.910,-1.94335e-3
2.98,213.67,5.877,100.910,-2.98316e-4
2.99,213.97,5.877,100.910,-3.97504e-4
2.99,214.27,5.877,100.910,-2.17005e-3
2.99,214.57,5.877,100.909,-3.12357e-3
3.00,214.87,5.877,100.908,-3.04545e-3
3.01,215.17,5.877,100.907,-4.08889e-3
3.01,215.47,5.877,100.906,-1.57820e-3
3.01,215.77,5.877,100.905,-3.00240e-3
3.02,216.07,5.877,100.904,-2.62749e-3
3.03,216.37,5.877,100.904,-9.13588e-4
3.03,216.67,5.877,100.904,-1.65117e-3
3.04,216.97,5.877,100.903,-1.35382e-3
3.04,217.27,5.877,100.903,-1.54352e-3
3.04,217.58,5.877,100.902,-8.81805e-4
3.05,217.88,5.877,100.902,-4.55998e-4
3.06,218.18,5.877,100.902,-1.72489e-3
3.06,218.48,5.877,100.901,-1.64122e-3
3.06,218.78,5.876,100.901,-1.48165e-3
3.07,219.08,5.876,100.900,-2.53821e-3
3.08,219.38,5.876,100.900,-1.25410e-3
3.08,219.68,5.876,100.899,-7.67900e-4
3.09,219.99,5.876,100.899,-1.22431e-3
3.09,220.29,5.876,100.899,-2.49517e-3
3.09,220.59,5.876,100.898,-2.16895e-3
3.10,220.89,5.876,100.897,-3.23595e-3
3.11,221.19,5.876,100.896,-1.61484e-3
3.11,221.49,5.876,100.895,-3.42238e-3
3.11,221.79,5.876,100.895,-9.53221e-4
3.12,222.09,5.876,100.894,-2.11360e-3
3.13,222.39,5.876,100.894,-1.29015e-3
3.13,222.69,5.876,100.893,-1.51246e-3
3.14,222.99,5.876,100.893,-2.78930e-3
3.14,223.29,5.876,100.892,-3.96816e-3
3.14,223.59,5.876,100.891,-1.36921e-3
3.15,223.89,5.876,100.891,-1.93567e-3
3.16,224.18,5.876,100.890,-2.33442e-3
3.16,224.48,5.876,100.889,-1.21724e-3
3.16,224.78,5.876,100.889,1.14095e-3
3.17,225.08,5.876,100.890,1.53205e-5
3.18,225.38,5.876,100.889,-5.28498e-4
3.18,225.68,5.876,100.889,-8.11837e-4
3.19,225.98,5.876,100.889,-3.46148e-3
3.19,226.28,5.876,100.888,-2.51121e-3
3.19,226.58,5.876,100.887,-3.36011e-3
3.20,226.88,5.876,100.886,-2.29723e-5
3.21,227.17,5.876,100.886,-1.51449e-3
3.21,227.47,5.876,100.886,-2.27064e-3
3.21,227.77,5.876,100.885,-2.42247e-3
3.22,228.07,5.875,100.884,-2.84124e-3
3.23,228.37,5.876,100.884,9.61793e-4
3.23,228.67,5.875,100.884,-1.70151e-3
3.24,228.97,5.875,100.883,-2.65397e-3
3.24,229.27,5.875,100.882,-4.07008e-3
3.24,229.57,5.875,100.881,-8.30399e-4
3.25,229.87,5.875,100.881,7.61564e-5
3.26,230.17,5.875,100.881,-6.92709e-4
3.26,230.47,5.875,100.880,-4.03240e-3
3.26,230.78,5.875,100.879,-4.31236e-3
3.27,231.08,5.875,100.879,-5.85499e-4
3.28,231.38,5.875,100.878,-3.21552e-3
3.28,231.68,5.875,100.877,-2.50064e-3
3.29,231.98,5.875,100.876,-1.53524e-3
3.29,232.28,5.875,100.876,-1.93029e-3
3.29,232.58,5.875,100.875,-2.61438e-3
3.30,232.88,5.875,100.874,-3.03286e-3
3.31,233.18,5.875,100.873,-8.28767e-4
3.31,233.49,5.875,100.873,-2.14449e-3
3.31,233.79,5.875,100.872,-2.31281e-3
3.32,234.09,5.875,100.872,-2.45812e-3
3.33,234.39,5.875,100.871,-3.11408e-3
3.33,234.69,5.875,100.870,-1.43213e-3
3.34,234.99,5.875,100.870,-1.55481e-3
3.34,235.29,5.875,100.870,-6.86229e-4
3.34,235.59,5.875,100.869,-3.48680e-3
3.35,235.89,5.875,100.868,-2.51165e-3
3.36,236.19,5.875,100.867,-2.00881e-3
3.36,236.49,5.875,100.867,-1.96390e-3
3.36,236.79,5.874,100.867,-4.35741e-4
3.37,237.09,5.874,100.866,-2.73053e-3
3.38,237.39,5.874,100.865,-1.09405e-3
3.38,237.69,5.874,100.865,-2.45685e-3
3.39,237.98,5.874,100.864,-1.24786e-3
3.39,238.28,5.874,100.864,-1.27871e-3
3.39,238.58,5.874,100.863,-3.00205e-3
3.40,238.88,5.874,100.863,6.96931e-4
3.41,239.18,5.874,100.863,-3.15540e-3
3.41,239.48,5.874,100.862,-1.07974e-3
3.41,239.78,5.874,100.862,-1.10247e-3
3.42,240.08,5.874,100.861,-1.01806e-3
3.43,240.38,5.874,100.861,-2.69367e-3
3.43,240.68,5.874,100.860,-8.64315e-4
3.44,240.97,5.874,100.860,-6.04091e-4
3.44,241.27,5.874,100.860,-9.63102e-4
3.44,241.57,5.874,100.860,6.87589e-4
3.45,241.87,5.874,100.860,-4.88675e-4
3.46,242.17,5.874,100.860,6.71741e-4
3.46,242.47,5.874,100.860,1.81533e-3
3.46,242.77,5.874,100.861,9.22507e-4
3.47,243.07,5.874,100.861,-1.72992e-3
3.48,243.37,5.874,100.859,-4.17422e-3
3.48,243.67,5.874,100.859,-1.93383e-3
3.49,243.97,5.874,100.858,-1.65159e-3
3.49,244.28,5.874,100.858,-1.71191e-3
3.49,244.58,5.874,100.857,-3.51424e-3
3.50,244.88,5.874,100.855,-3.49054e-3
3.51,245.18,5.874,100.855,-1.06454e-3
3.51,245.48,5.874,100.854,-2.66126e-3
3.51,245.78,5.874,100.854,-6.31080e-4
3.52,246.08,5.874,100.854,-1.07985e-3
3.53,246.38,5.874,100.854,-1.52104e-4
3.53,246.68,5.874,100.854,7.60697e-4
3.54,246.98,5.874,100.854,-1.66641e-3
3.54,247.28,5.874,100.853,-1.25588e-3
3.54,247.59,5.874,100.853,-1.25634e-3
3.55,247.89,5.874,100.852,-1.62249e-3
3.56,248.19,5.874,100.852,-2.21747e-3
3.56,248.49,5.874,100.851,-1.59344e-3
3.56,248.79,5.874,100.850,-2.09001e-3
3.57,249.09,5.874,100.850,-7.32522e-4
3.58,249.39,5.874,100.850,-8.16963e-4
3.58,249.69,5.874,100.850,-2.11584e-3
3.59,249.99,5.873,100.849,4.04931e-4
3.59,250.29,5.874,100.850,5.73387e-4
3.59,250.58,5.873,100.849,-4.28265e-4
3.60,250.88,5.873,100.849,-9.94416e-4
3.61,251.18,5.873,100.849,-1.43853e-3
3.61,251.48,5.873,100.848,-6.73451e-4
3.61,251.78,5.873,100.848,-1.78335e-3
3.62,252.08,5.873,100.848,-2.41880e-3
3.63,252.38,5.873,100.847,-2.31155e-3
3.63,252.68,5.873,100.846,-2.09714e-3
3.64,252.98,5.873,100.846,-7.63822e-6
3.64,253.28,5.873,100.846,-8.64630e-4
3.64,253.58,5.873,100.846,1.19331e-3
3.65,253.88,5.873,100.846,-2.10313e-3
3.66,254.17,5.873,100.845,-9.40267e-4
3.66,254.47,5.873,100.845,-1.03181e-3
3.66,254.77,5.873,100.844,-2.12360e-3
3.67,255.07,5.873,100.844,-5.11653e-4
3.68,255.37,5.873,100.843,-1.14485e-3
3.68,255.67,5.873,100.844,-7.63533e-5
3.69,255.97,5.873,100.843,-3.09617e-3
3.69,256.27,5.873,100.842,-6.93514e-4
3.69,256.57,5.873,100.842,-2.19445e-3
3.70,256.87,5.873,100.842,-1.59881e-4
3.71,257.17,5.873,100.842,1.77390e-3
3.71,257.48,5.873,100.842,1.14940e-3
3.71,257.78,5.873,100.843,2.03940e-3
3.72,258.08,5.873,100.843,-7.15155e-4
3.73,258.38,5.873,100.843,-2.53326e-3
3.73,258.68,5.873,100.842,-2.75371e-3
3.74,258.98,5.873,100.841,-1.77990e-3
3.74,259.28,5.873,100.840,-4.35107e-3
3.74,259.58,5.873,100.839,-3.35490e-3
3.75,259.88,5.873,100.839,4.18525e-4
3.76,260.18,5.873,100.838,-1.50696e-3
3.76,260.48,5.873,100.838,1.72797e-3
3.76,260.78,5.873,100.839,1.59941e-4
3.77,261.08,5.873,100.839,-7.46489e-4
3.78,261.39,5.873,100.838,-1.88978e-3
3.78,261.69,5.873,100.837,-2.66049e-3
3.79,261.99,5.873,100.837,-1.74646e-3
3.79,262.29,5.873,100.836,-2.75450e-3
3.79,262.59,5.873,100.836,-2.57243e-3
3.80,262.89,5.873,100.834,-2.79494e-3
3.81,263.18,5.873,100.834,-7.10552e-4
3.81,263.48,5.873,100.834,-1.91066e-3
3.81,263.78,5.873,100.833,-1.86564e-3
3.82,264.08,5.873,100.833,-1.26185e-3
3.83,264.38,5.872,100.832,-1.05582e-3
3.83,264.68,5.872,100.832,-7.57447e-4
3.84,264.98,5.872,100.832,-2.14285e-4
3.84,265.28,5.872,100.832,-1.55374e-3
3.84,265.58,5.872,100.831,-1.78343e-3
3.85,265.88,5.872,100.831,-1.39306e-3
3.86,266.18,5.872,100.830,-4.20943e-4
3.86,266.48,5.872,100.830,-1.12478e-3
3.86,266.77,5.872,100.830,-4.66706e-4
3.87,267.07,5.872,100.830,-1.17036e-3
3.88,267.37,5.872,100.829,-2.53097e-3
3.88,267.67,5.872,100.829,-4.73949e-4
3.89,267.97,5.872,100.828,-1.82623e-3
3.89,268.27,5.872,100.828,-1.35955e-3
3.89,268.57,5.872,100.827,-2.81721e-3
3.90,268.87,5.872,100.826,-1.92320e-3
3.91,269.17,5.872,100.826,-7.77985e-4
3.91,269.47,5.872,100.826,-1.33449e-3
3.91,269.77,5.872,100.825,-3.01833e-3
3.92,270.07,5.872,100.824,-2.71231e-3
3.93,270.37,5.872,100.824,9.21632e-4
3.93,270.67,5.872,100.824,1.21796e-4
3.94,270.97,5.872,100.824,-1.59838e-3
3.94,271.27,5.872,100.823,-1.86437e-3
3.94,271.58,5.872,100.823,-1.05758e-3
3.95,271.88,5.872,100.823,-1.56713e-3
3.96,272.18,5.872,100.822,-2.29740e-3
3.96,272.48,5.872,100.821,-1.05730e-3
3.96,272.78,5.872,100.821,-2.24437e-3
3.97,273.08,5.872,100.821,-4.79288e-4
3.98,273.38,5.872,100.820,-7.83775e-4
3.98,273.68,5.872,100.820,-1.07329e-3
3.99,273.98,5.872,100.820,-2.24603e-3
3.99,274.28,5.872,100.819,-9.06348e-4
3.99,274.58,5.872,100.819,-2.49907e-3
4.00,274.88,5.872,100.818,-1.57004e-3
4.01,275.18,5.872,100.817,-1.79171e-3
4.01,275.48,5.872,100.817,-1.72384e-3
4.01,275.78,5.872,100.816,-1.83136e-3
4.02,276.08,5.872,100.816,-1.76344e-3
4.03,276.38,5.872,100.815,-2.30641e-3
4.03,276.68,5.871,100.815,-1.52028e-3
4.04,276.98,5.871,100.814,-2.23139e-3
4.04,277.28,5.871,100.814,-1.37580e-4
4.04,277.58,5.871,100.813,1.60601e-4
4.05,277.88,5.871,100.814,8.49065e-4
4.06,278.18,5.871,100.814,-1.66755e-3
4.06,278.48,5.871,100.813,-3.67197e-4
4.06,278.78,5.871,100.813,-4.51346e-4
4.07,279.08,5.871,100.813,-6.19713e-4
4.08,279.38,5.871,100.813,-2.70791e-3
4.08,279.68,5.871,100.812,-2.09583e-3
4.09,279.98,5.871,100.811,-3.82380e-5
4.09,280.27,5.871,100.812,-7.79998e-4
4.09,280.57,5.871,100.811,-2.33944e-3
4.10,280.87,5.871,100.811,-1.39095e-3
4.11,281.17,5.871,100.810,-2.33807e-3
4.11,281.47,5.871,100.809,-1.55057e-3
4.11,281.77,5.871,100.809,-4.04678e-4
4.12,282.07,5.871,100.809,-1.73271e-3
4.13,282.37,5.871,100.808,-2.54845e-3
4.13,282.67,5.871,100.807,-2.88317e-3
4.14,282.97,5.871,100.806,-2.69875e-3
4.14,283.27,5.871,100.806,1.74539e-3
4.14,283.57,5.871,100.806,-1.41721e-3
4.15,283.87,5.871,100.806,-1.14269e-3
4.16,284.17,5.871,100.805,-3.49547e-3
4.16,284.47,5.871,100.804,-2.65722e-3
4.16,284.77,5.871,100.803,-2.10110e-3
4.17,285.08,5.871,100.803,-7.53654e-4
4.18,285.38,5.871,100.803,-1.19507e-3
4.18,285.68,5.871,100.803,8.60180e-4
4.19,285.98,5.871,100.803,1.52253e-4
4.19,286.28,5.871,100.803,3.50222e-4
4.19,286.58,5.871,100.803,3.80700e-4
4.20,286.88,5.871,100.803,-1.70592e-3
4.21,287.18,5.871,100.803,-1.31766e-3
4.21,287.48,5.871,100.801,-5.08217e-3
4.21,287.78,5.871,100.800,-1.59299e-3
4.22,288.08,5.871,100.800,-1.98197e-4
4.23,288.38,5.871,100.800,4.11911e-4
4.23,288.68,5.871,100.800,-4.38691e-3
4.24,288.98,5.871,100.799,-1.85472e-3
4.24,289.28,5.871,100.798,-3.58842e-4
4.24,289.58,5.871,100.798,-2.59715e-4
4.25,289.88,5.871,100.798,-1.75689e-4
4.26,290.18,5.870,100.798,-2.36131e-3
4.26,290.48,5.870,100.797,-4.20404e-4
4.26,290.78,5.870,100.797,-1.18502e-3
4.27,291.08,5.870,100.797,6.42296e-4
4.28,291.38,5.870,100.797,-9.40655e-4
4.28,291.68,5.870,100.797,-2.29441e-3
4.29,291.98,5.870,100.796,-1.22375e-3
4.29,292.28,5.870,100.795,-1.78980e-3
4.30,292.57,5.870,100.795,-3.82380e-4
4.30,292.87,5.870,100.795,-3.94578e-3
4.30,293.17,5.870,100.793,-3.93750e-3
4.31,293.47,5.870,100.792,-1.07789e-3
4.31,293.77,5.870,100.793,2.04825e-3
4.32,294.07,5.870,100.793,-1.48242e-3
4.33,294.37,5.870,100.792,-1.49716e-3
4.33,294.67,5.870,100.792,5.72758e-4
4.34,294.97,5.870,100.792,-1.16040e-3
4.34,295.27,5.870,100.792,-3.35853e-4
4.35,295.57,5.870,100.791,-3.29599e-3
4.35,295.87,5.870,100.790,-3.17286e-3
4.35,296.17,5.870,100.790,-1.59357e-3
4.36,296.47,5.870,100.789,1.32644e-3
4.36,296.77,5.870,100.790,-2.25579e-3
4.37,297.07,5.870,100.788,-3.21524e-3
4.38,297.37,5.870,100.788,-6.17040e-4
4.38,297.67,5.870,100.788,-2.74223e-4
4.39,297.97,5.870,100.788,-1.75183e-3
4.39,298.27,5.870,100.787,-1.66041e-3
4.40,298.57,5.870,100.787,-9.82549e-4
4.40,298.87,5.870,100.786,-1.64519e-3
4.40,299.17,5.870,100.786,3.19856e-4
4.41,299.48,5.870,100.786,5.56124e-4
4.41,299.78,5.870,100.787,1.37907e-3
4.42,300.08,5.870,100.787,-1.89753e-3
4.43,300.38,5.870,100.786,-1.79134e-3
4.43,300.68,5.870,100.785,-2.65305e-3
4.44,300.98,5.870,100.784,-2.49377e-3
4.44,301.28,5.870,100.784,-1.46457e-3
4.45,301.58,5.870,100.784,-2.13673e-4
4.45,301.88,5.870,100.784,-1.21352e-3
4.45,302.18,5.870,100.783,-3.53498e-3
4.46,302.48,5.870,100.782,-6.26223e-4
4.46,302.78,5.870,100.782,-2.22292e-3
4.47,303.08,5.870,100.781,-7.71714e-4
4.48,303.38,5.870,100.781,-9.55296e-4
4.48,303.67,5.870,100.781,-1.60507e-4
4.49,303.97,5.869,100.780,-4.27331e-3
4.49,304.27,5.869,100.779,-2.00326e-3
4.50,304.57,5.869,100.779,-1.68196e-4
4.50,304.87,5.869,100.778,-9.48012e-4
4.50,305.17,5.869,100.779,-5.35196e-4
4.51,305.47,5.869,100.779,3.21113e-4
4.51,305.77,5.869,100.778,-2.10976e-3
4.52,306.07,5.869,100.778,-1.49805e-3
4.53,306.37,5.869,100.777,-5.80755e-4
4.53,306.67,5.869,100.778,2.53648e-3
4.54,306.97,5.869,100.778,-2.29123e-4
4.54,307.27,5.869,100.778,-1.65705e-3
4.55,307.57,5.869,100.777,-2.32073e-3
4.55,307.87,5.869,100.776,-1.81636e-3
4.55,308.17,5.869,100.776,-2.21276e-3
4.56,308.47,5.869,100.775,-1.70097e-3
4.56,308.77,5.869,100.775,-2.05133e-3
4.57,309.07,5.869,100.774,-3.74329e-3
4.58,309.37,5.869,100.772,-3.52134e-3
4.58,309.67,5.869,100.772,-9.44855e-4
4.59,309.97,5.869,100.772,-1.15047e-3
4.59,310.27,5.869,100.771,-1.08927e-3
4.60,310.57,5.869,100.771,6.39748e-4
4.60,310.87,5.869,100.771,-9.13798e-5
4.60,311.17,5.869,100.771,-1.91136e-3
4.61,311.47,5.869,100.770,-3.10691e-3
4.61,311.77,5.869,100.769,-2.95461e-3
4.62,312.07,5.869,100.768,-1.03576e-3
4.63,312.37,5.869,100.769,-1.06624e-3
4.63,312.67,5.869,100.768,-7.54176e-4
4.64,312.97,5.869,100.768,-1.86663e-3
4.64,313.27,5.869,100.767,-2.43866e-3
4.65,313.57,5.869,100.766,-3.05660e-3
4.65,313.87,5.869,100.765,-1.29687e-4
4.65,314.18,5.869,100.766,-1.22788e-3
4.66,314.48,5.869,100.765,-2.14362e-3
4.66,314.78,5.869,100.764,-2.64024e-3
4.67,315.08,5.868,100.764,-2.28244e-3
4.68,315.37,5.868,100.763,-4.96298e-4
4.68,315.67,5.868,100.763,-1.32116e-3
4.69,315.97,5.868,100.762,-1.35218e-3
4.69,316.27,5.868,100.762,-3.19400e-3
4.70,316.57,5.868,100.761,-1.19230e-3
4.70,316.87,5.868,100.761,2.44533e-4
4.70,317.17,5.868,100.761,-3.82263e-4
4.71,317.47,5.868,100.761,4.89297e-4
4.71,317.77,5.868,100.761,-2.75260e-4
4.72,318.07,5.868,100.761,2.29358e-4
4.73,318.37,5.868,100.761,-2.42355e-3
4.73,318.67,5.868,100.760,-1.45249e-3
4.74,318.97,5.868,100.760,-7.26158e-4
4.74,319.27,5.868,100.759,-2.94992e-3
4.75,319.57,5.868,100.759,7.48843e-4
4.75,319.87,5.868,100.759,2.97923e-4
4.75,320.17,5.868,100.759,9.92324e-5
4.76,320.47,5.868,100.759,-2.99290e-3
4.76,320.77,5.868,100.758,-1.87010e-3
4.77,321.07,5.868,100.757,-3.80743e-3
4.78,321.37,5.868,100.756,-3.59263e-3
4.78,321.67,5.868,100.755,-9.68501e-4
4.79,321.97,5.868,100.755,-1.54759e-3
4.79,322.27,5.868,100.754,-2.50765e-3
4.80,322.57,5.868,100.754,-1.87461e-3
4.80,322.87,5.868,100.753,-2.65145e-3
4.80,323.17,5.868,100.752,-1.81310e-3
4.81,323.47,5.868,100.752,-2.22436e-3
4.81,323.77,5.868,100.751,-2.51366e-3
4.82,324.07,5.868,100.750,-2.22435e-3
4.83,324.37,5.868,100.750,-1.01310e-3
4.83,324.67,5.868,100.749,-5.47006e-3
4.84,324.97,5.868,100.748,-2.16397e-3
4.84,325.27,5.868,100.747,-7.84927e-4
4.85,325.57,5.868,100.747,-2.59128e-3
4.85,325.87,5.867,100.746,1.82949e-4
4.85,326.17,5.867,100.746,-1.00655e-3
4.86,326.47,5.867,100.746,-2.51698e-3
4.86,326.77,5.867,100.745,-4.69176e-3
4.87,327.07,5.867,100.743,-1.46520e-3
4.88,327.37,5.867,100.743,-2.97684e-3
4.88,327.67,5.867,100.742,-5.59631e-3
4.89,327.97,5.867,100.741,-3.42140e-3
4.89,328.27,5.867,100.739,-3.55975e-3
4.90,328.57,5.867,100.738,-2.74281e-3
4.90,328.87,5.867,100.738,-4.07303e-3
4.90,329.17,5.867,100.736,-3.22561e-3
4.91,329.47,5.867,100.736,-1.45998e-3
4.91,329.77,5.867,100.735,-3.05016e-3
4.92,330.07,5.867,100.734,-4.30390e-3
4.93,330.37,5.867,100.733,-3.62330e-3
4.93,330.67,5.867,100.732,-2.33909e-3
4.94,330.97,5.867,100.731,-3.04970e-3
4.94,331.27,5.867,100.730,-3.36258e-3
4.95,331.57,5.866,100.729,-3.75178e-3
4.95,331.86,5.866,100.728,-2.19266e-3
4.95,332.16,5.866,100.728,-1.35213e-3
4.96,332.46,5.866,100.727,-3.54329e-3
4.96,332.76,5.866,100.726,-4.19949e-3
4.97,333.06,5.866,100.724,-3.93069e-3
4.98,333.36,5.866,100.723,-2.67078e-3
4.98,333.66,5.866,100.722,-2.34971e-3
4.99,333.96,5.866,100.722,-1.60172e-3
4.99,334.26,5.866,100.721,-4.79640e-3
5.00,334.56,5.866,100.720,-5.71008e-3
5.00,334.86,5.866,100.718,-3.43005e-3
5.00,335.16,5.866,100.717,-4.60295e-3
5.01,335.46,5.866,100.716,-1.03627e-3
5.01,335.77,5.866,100.716,-2.80402e-3
5.02,336.07,5.866,100.714,-2.78092e-3
5.03,336.37,5.866,100.714,-1.59236e-3
5.03,336.67,5.866,100.713,-2.81902e-3
5.04,336.97,5.865,100.712,-4.54130e-3
5.04,337.27,5.865,100.711,-3.99304e-3
5.05,337.57,5.865,100.710,-3.07905e-3
5.05,337.87,5.865,100.709,-3.70427e-3
5.05,338.17,5.865,100.707,-4.03333e-3
5.06,338.47,5.865,100.707,-2.21153e-3
5.06,338.77,5.865,100.706,-3.09689e-3
5.07,339.07,5.865,100.705,-2.51792e-3
5.08,339.37,5.865,100.704,-2.82375e-3
5.08,339.67,5.865,100.703,-4.10722e-3
5.09,339.97,5.865,100.702,-5.07785e-3
5.09,340.27,5.865,100.700,-2.94073e-3
5.10,340.57,5.865,100.699,-3.83501e-3
5.10,340.87,5.865,100.699,-2.23132e-3
5.10,341.17,5.865,100.698,-5.45685e-3
5.11,341.47,5.865,100.696,-5.25133e-3
5.11,341.77,5.864,100.694,-3.60799e-3
5.12,342.06,5.864,100.694,-2.40807e-3
5.13,342.36,5.864,100.693,-8.56269e-4
5.13,342.66,5.864,100.693,-5.96330e-4
5.14,342.96,5.864,100.693,-2.56859e-3
5.14,343.26,5.864,100.691,-3.80676e-3
5.15,343.56,5.864,100.690,-2.42281e-3
5.15,343.86,5.864,100.690,-2.43024e-3
5.15,344.16,5.864,100.689,-5.00535e-3
5.16,344.46,5.864,100.687,-5.80597e-3
5.16,344.76,5.864,100.686,-2.74213e-3
5.17,345.06,5.864,100.685,-3.65021e-3
5.18,345.36,5.864,100.684,-5.21458e-3
5.18,345.66,5.864,100.682,-5.24398e-3
5.19,345.96,5.864,100.680,-6.03632e-3
5.19,346.26,5.864,100.679,-2.51004e-3
5.20,346.56,5.864,100.678,-2.44855e-3
5.20,346.86,5.863,100.677,-4.01124e-3
5.20,347.16,5.863,100.676,-2.58478e-3
5.21,347.46,5.863,100.675,-7.78374e-3
5.21,347.76,5.863,100.672,-4.65723e-3
5.22,348.06,5.863,100.671,-6.19665e-3
5.23,348.36,5.863,100.669,-5.31250e-3
5.23,348.66,5.863,100.668,-3.96341e-3
5.24,348.96,5.863,100.667,-4.37460e-3
5.24,349.26,5.863,100.665,-4.13848e-3
5.25,349.56,5.863,100.664,-5.59468e-3
5.25,349.86,5.863,100.662,-4.24585e-3
5.25,350.16,5.863,100.661,-5.87847e-3
5.26,350.46,5.862,100.659,-2.98171e-3
5.26,350.76,5.862,100.659,-2.63118e-3
5.27,351.06,5.862,100.658,-1.75530e-4
5.28,351.36,5.862,100.658,-5.12779e-3
5.28,351.66,5.862,100.656,-6.25060e-3
5.29,351.96,5.862,100.654,-3.55733e-3
5.29,352.26,5.862,100.653,-5.29121e-3
5.30,352.56,5.862,100.652,-2.25318e-3
5.30,352.86,5.862,100.651,-5.36236e-3
5.30,353.16,5.862,100.649,-6.11247e-3
5.31,353.46,5.862,100.648,-5.63136e-3
5.31,353.76,5.862,100.645,-7.71107e-3
5.32,354.06,5.862,100.644,-4.80692e-3
5.33,354.36,5.861,100.642,-7.66656e-3
5.33,354.66,5.861,100.639,-6.28306e-3
5.34,354.96,5.861,100.638,-6.50475e-3
5.34,355.26,5.861,100.635,-7.83448e-3
5.35,355.56,5.861,100.633,-0.0112577
5.35,355.86,5.861,100.629,-8.33758e-3
5.35,356.16,5.861,100.628,-4.63045e-3
5.36,356.46,5.861,100.627,-5.65373e-3
5.36,356.75,5.860,100.624,-5.79758e-3
5.37,357.05,5.860,100.623,-5.91872e-3
5.38,357.35,5.860,100.621,-7.10885e-3
5.38,357.65,5.860,100.618,-0.0151537
5.39,357.95,5.860,100.613,-0.0125247
5.39,358.25,5.860,100.611,-3.85317e-3
5.40,358.55,5.860,100.610,-7.59078e-3
5.40,358.85,5.859,100.607,-8.04703e-3
5.40,359.15,5.859,100.605,-7.63352e-3
5.41,359.45,5.859,100.602,-7.92232e-3
5.41,359.75,5.859,100.600,-9.21047e-3
5.42,360.05,5.859,100.597,-8.05078e-3
5.43,360.35,5.859,100.595,-8.49898e-3
5.43,360.66,5.859,100.592,-8.29346e-3
5.44,360.96,5.858,100.589,-0.0122267
5.44,361.26,5.858,100.586,-0.0119901
5.45,361.56,5.858,100.583,-6.44150e-3
5.45,361.86,5.858,100.581,-9.48395e-3
5.45,362.16,5.858,100.577,-9.95730e-3
5.46,362.46,5.857,100.574,-9.27961e-3
5.46,362.76,5.857,100.572,-0.0106994
5.47,363.06,5.857,100.567,-0.0207691
5.48,363.36,5.857,100.561,-0.0159054
5.48,363.66,5.856,100.557,-0.0124981
5.49,363.96,5.856,100.553,-0.0136371
5.49,364.26,5.856,100.549,-0.0133033
5.50,364.56,5.856,100.545,-0.0112145
5.50,364.86,5.856,100.542,-0.0133094
5.50,365.16,5.855,100.538,-0.0153110
5.51,365.46,5.855,100.533,-0.0132053
5.51,365.76,5.855,100.529,-0.0134293
5.52,366.05,5.855,100.525,-0.0155539
5.53,366.35,5.854,100.521,-0.0137225
5.53,366.65,5.854,100.516,-0.0174527
5.54,366.95,5.854,100.511,-0.0158246
5.54,367.25,5.854,100.506,-0.0177350
5.55,367.55,5.853,100.499,-0.0260261
5.55,367.85,5.853,100.492,-0.0250917
5.55,368.15,5.852,100.485,-0.0173823
5.56,368.45,5.852,100.481,-0.0160504
5.56,368.75,5.852,100.475,-0.0160265
5.57,369.05,5.851,100.471,-0.0170934
5.58,369.35,5.851,100.464,-0.0403748
5.58,369.65,5.850,100.452,-0.0190428
5.59,369.95,5.850,100.446,-0.0231908
5.59,370.25,5.850,100.439,-0.0269146
5.60,370.55,5.849,100.429,-0.0378663
5.60,370.85,5.848,100.418,-0.0286433
5.60,371.15,5.848,100.412,-0.0187443
5.61,371.45,5.848,100.406,-0.0189180
5.61,371.75,5.847,100.398,-0.0312711
5.62,372.05,5.846,100.385,-0.0522618
5.63,372.35,5.846,100.373,-0.0308526
5.63,372.65,5.845,100.362,-0.0360073
5.64,372.95,5.845,100.354,-0.0307589
5.64,373.25,5.844,100.344,-0.0299206
5.65,373.55,5.843,100.334,-0.0340379
5.65,373.85,5.843,100.321,-0.0587311
5.65,374.15,5.842,100.305,-0.0549215
5.66,374.45,5.841,100.284,-0.0478300
5.66,374.75,5.840,100.277,-0.0258293
5.67,375.05,5.840,100.270,-0.0288041
5.68,375.35,5.839,100.261,-0.0246681
5.68,375.65,5.839,100.249,-0.0630435
5.69,375.95,5.837,100.222,-0.0929325
5.69,376.25,5.836,100.204,-0.0361722
5.70,376.55,5.835,100.189,-0.0531946
5.70,376.85,5.834,100.179,-0.0310676
5.70,377.15,5.834,100.170,-0.0407089
5.71,377.45,5.833,100.149,-0.0896289
5.71,377.75,5.831,100.124,-0.0582082
5.72,378.05,5.830,100.110,-0.0416438
5.73,378.35,5.830,100.096,-0.0700696
5.73,378.65,5.828,100.070,-0.0675475
5.74,378.95,5.827,100.059,-0.0530139
5.74,379.25,5.826,100.040,-0.0610508
5.75,379.55,5.825,100.022,-0.0562339
5.75,379.85,5.824,100.006,-0.0476349
5.75,380.15,5.824,99.994,-0.0609227
5.76,380.45,5.822,99.974,-0.0547861
5.76,380.75,5.821,99.949,-0.0943657
5.77,381.05,5.820,99.929,-0.0715905
5.78,381.35,5.818,99.902,-0.0663005
5.78,381.65,5.818,99.888,-0.0566424
5.79,381.95,5.816,99.866,-0.0926361
5.79,382.25,5.814,99.833,-0.0928881
5.80,382.55,5.813,99.811,-0.0697115
5.80,382.84,5.812,99.789,-0.0979090
5.80,383.14,5.810,99.760,-0.0761834
5.81,383.44,5.809,99.737,-0.0799256
5.81,383.74,5.807,99.714,-0.0551953
5.82,384.04,5.807,99.699,-0.0551232
5.83,384.34,5.806,99.682,-0.0749720
5.83,384.64,5.804,99.656,-0.0889604
5.84,384.95,5.802,99.622,-0.142838
5.84,385.25,5.800,99.579,-0.112520
5.85,385.55,5.798,99.553,-0.0750488
5.85,385.85,5.797,99.533,-0.0473942
5.85,386.15,5.796,99.517,-0.102746
5.86,386.45,5.794,99.480,-0.100671
5.86,386.75,5.792,99.457,-0.0518133
5.87,387.05,5.792,99.444,-0.0573737
5.87,387.15,5.791,99.437,-0.0647894