File: instrument_data/TGA/Co(phen)2(SCN)2 electromagnet RT-40011142022(1).csv
Filename,Co(phen)2(SCN)2 electromagnet RT-40011142022(1)
Instrument name,5500-0566 (192.168.10.4)
Operator,Adam K
rundate,11/14/2022
Sample name,Co(phen)2(SCN)2 electromagnet RT-400
proceduresegments,Equilibrate 110.00 °C; Isothermal 1.0 min; Electromagnet On 50.0 %; Ramp 10.00 °C/min to 400.00 °C
[File Parameters]
Run date,11/14/2022 4:45:04 PM
Trios version,5.3.0.48151
Original File Name,C:\ProgramData\TA Instruments\TRIOS\Data\CH302_B3_22_AK\Co(phen)2(SCN)2 electromagnet RT-40011142022(1).tri
Current File Name,C:/ProgramData/TA Instruments/TRIOS/Data/CH302_B3_22_AK/Co(phen)2(SCN)2 electromagnet RT-40011142022(1).tri
User at run start,CH-CBWNNF3-0721\ChemLocal
[Procedure]
Procedure Name,
Sample Name,Co(phen)2(SCN)2 electromagnet RT-400
Pan Number,10
Sample Mass,7.131 mg
Pan Type,Aluminum
Comments,
Project Name,Spin Crossover
Operator,Adam K
Test,Custom
Skip Weight Stabilization,False
Sample mass pre-weigh,Not Available
Stop on Gas Flow Error,No
[Signal List]
Signal #1,Time (min)
Signal #2,Temperature (°C)
Signal #3,Weight (mg)
Signal #4,Temperature Difference (°C)
Signal #5,Sample Purge (mL/min)
Signal #6,Balance Purge (mL/min)
Signal #7,Set Point Temperature (°C)
Signal #8,Power Delivered (W)
Signal #9,Ramp Rate (°C/min)
[Configuration]
Company Name,localcc
Instrument Name,5500-0566
Instrument Type,TGA5500
Serial Number,5500-0566
IP,192.168.10.4
Location of Instrument,Olin Hall Rm 364
DisplayType,TianmaV2
Sample Interval ,0.1 s/pt
Gas 1,Nitrogen
Gas 2,Air
Selected Gas Channel,1
MTGA HiRes Licensed,Yes
[Versions]
Common IDD Version,1
Cortex Version,VER 2.1.2.60
Driver,5.0.0.6
GDM Version,1.2.1.2
TouchscreenVersion,1.0.3.1795
PCU Version,1.2.0.15
Transducer Version,1.1.0.32
[Experiment Logs]
Experiment Log Entry # 1,Equilibrate Segment 110 (C) Started
Experiment Log Entry # 3,Isothermal Segment 1 min started
Experiment Log Entry # 5,"Curie Magnet Segment enable 1, 50 %"
Experiment Log Entry # 7,Ramp Segment 10 C/min to 400 C Started
[Method Log]
Method Log Entry # 1,Equilibrate 110 °C
Method Log Entry # 2,Isothermal 1 minutes
Method Log Entry # 3,Electromagnet On 50 %
Method Log Entry # 4,(Ramp 10336) Ramp 10 °C/minute to 400 °C
[Weight Calibration]
Date Applied,7/20/2022 10:21:44 AM
Empty Pan Number,23
Empty Pan Weight,341.358 mg
Low Reference Weight Pan Number,24
Low Reference Weight,442.546 mg
High Reference Weight Pan Number,25
High Reference Weight,"1,243.774 mg"
Low Gain Meter Reading,9.9772E-006 mg/count
High Gain Meter Reading,7.9459E-005 mg/count
Low Meter Offset,31.8759 mg
High Meter Offset,613.7978 mg
[Curie Calibration]
Date Applied,8/11/2021 12:40:46 PM
Description,From 256.990 °C to 456.990 °C at 20.000°C/min
Gas Type,Nitrogen
Pan Type,Platinum (100 uL)
Source Files 1,C:\ProgramData\TA Instruments\TRIOS\Data\Nickel Calibration.tri
Source Files 2,C:\ProgramData\TA Instruments\TRIOS\Data\Alumel Calibration.tri
Measured 1,158.9083
Known 1,154.16
Measured 2,358.1255
Known 2,356.99
[step]
Isothermal 1.0 min
Time,Temperature,Weight,Weight
min,°C,mg,%
0.00,110.16,7.067,99.105
0.00,110.16,7.067,99.105
0.00,110.16,7.067,99.105
0.01,110.16,7.067,99.105
0.01,110.16,7.067,99.105
0.01,110.17,7.067,99.105
0.01,110.17,7.067,99.105
0.01,110.17,7.067,99.105
0.01,110.17,7.067,99.105
0.01,110.17,7.067,99.104
0.02,110.17,7.067,99.104
0.02,110.17,7.067,99.104
0.02,110.17,7.067,99.104
0.02,110.18,7.067,99.104
0.02,110.18,7.067,99.104
0.03,110.18,7.067,99.103
0.03,110.18,7.067,99.103
0.03,110.18,7.067,99.103
0.03,110.18,7.067,99.103
0.03,110.18,7.067,99.103
0.03,110.18,7.067,99.103
0.03,110.19,7.067,99.103
0.04,110.19,7.067,99.103
0.04,110.19,7.067,99.103
0.04,110.19,7.067,99.103
0.04,110.19,7.067,99.103
0.04,110.19,7.067,99.102
0.05,110.19,7.067,99.102
0.05,110.19,7.067,99.102
0.05,110.20,7.067,99.102
0.05,110.20,7.067,99.102
0.05,110.20,7.067,99.102
0.05,110.20,7.067,99.102
0.05,110.20,7.067,99.102
0.06,110.20,7.067,99.102
0.06,110.20,7.067,99.102
0.06,110.20,7.067,99.102
0.06,110.21,7.067,99.102
0.06,110.21,7.067,99.102
0.07,110.21,7.067,99.101
0.07,110.21,7.067,99.101
0.07,110.21,7.067,99.101
0.07,110.21,7.067,99.101
0.07,110.21,7.067,99.101
0.07,110.21,7.067,99.101
0.08,110.21,7.067,99.101
0.08,110.22,7.067,99.101
0.08,110.22,7.067,99.100
0.08,110.22,7.067,99.100
0.08,110.22,7.067,99.100
0.08,110.22,7.067,99.100
0.08,110.22,7.067,99.100
0.09,110.22,7.067,99.100
0.09,110.22,7.067,99.100
0.09,110.22,7.067,99.100
0.09,110.23,7.067,99.099
0.09,110.23,7.067,99.099
0.09,110.23,7.067,99.099
0.10,110.23,7.067,99.099
0.10,110.23,7.067,99.099
0.10,110.23,7.067,99.099
0.10,110.23,7.067,99.099
0.10,110.23,7.067,99.099
0.11,110.23,7.067,99.099
0.11,110.24,7.067,99.098
0.11,110.24,7.066,99.098
0.11,110.24,7.066,99.098
0.11,110.24,7.066,99.098
0.11,110.24,7.066,99.098
0.12,110.24,7.066,99.097
0.12,110.24,7.066,99.097
0.12,110.24,7.066,99.097
0.12,110.24,7.066,99.097
0.12,110.25,7.066,99.097
0.12,110.25,7.066,99.096
0.13,110.25,7.066,99.096
0.13,110.25,7.066,99.096
0.13,110.25,7.066,99.096
0.13,110.25,7.066,99.096
0.13,110.25,7.066,99.095
0.13,110.25,7.066,99.095
0.14,110.25,7.066,99.095
0.14,110.25,7.066,99.095
0.14,110.26,7.066,99.095
0.14,110.26,7.066,99.094
0.14,110.26,7.066,99.094
0.14,110.26,7.066,99.094
0.14,110.26,7.066,99.094
0.15,110.26,7.066,99.094
0.15,110.26,7.066,99.093
0.15,110.26,7.066,99.093
0.15,110.26,7.066,99.093
0.15,110.26,7.066,99.093
0.16,110.27,7.066,99.092
0.16,110.27,7.066,99.092
0.16,110.27,7.066,99.092
0.16,110.27,7.066,99.092
0.16,110.27,7.066,99.092
0.16,110.27,7.066,99.092
0.16,110.27,7.066,99.092
0.17,110.27,7.066,99.092
0.17,110.27,7.066,99.092
0.17,110.27,7.066,99.092
0.17,110.27,7.066,99.092
0.17,110.28,7.066,99.092
0.18,110.28,7.066,99.091
0.18,110.28,7.066,99.091
0.18,110.28,7.066,99.091
0.18,110.28,7.066,99.091
0.18,110.28,7.066,99.091
0.18,110.28,7.066,99.091
0.19,110.28,7.066,99.090
0.19,110.28,7.066,99.090
0.19,110.28,7.066,99.090
0.19,110.28,7.066,99.090
0.19,110.29,7.066,99.090
0.19,110.29,7.066,99.090
0.19,110.29,7.066,99.090
0.20,110.29,7.066,99.089
0.20,110.29,7.066,99.089
0.20,110.29,7.066,99.089
0.20,110.29,7.066,99.089
0.20,110.29,7.066,99.089
0.21,110.29,7.066,99.089
0.21,110.29,7.066,99.089
0.21,110.29,7.066,99.089
0.21,110.30,7.066,99.088
0.21,110.30,7.066,99.088
0.21,110.30,7.066,99.088
0.21,110.30,7.066,99.088
0.22,110.30,7.066,99.088
0.22,110.30,7.066,99.088
0.22,110.30,7.066,99.088
0.22,110.30,7.066,99.088
0.22,110.30,7.066,99.088
0.23,110.30,7.066,99.088
0.23,110.30,7.066,99.088
0.23,110.30,7.066,99.087
0.23,110.30,7.066,99.087
0.23,110.31,7.066,99.087
0.23,110.31,7.066,99.087
0.24,110.31,7.066,99.087
0.24,110.31,7.066,99.086
0.24,110.31,7.066,99.086
0.24,110.31,7.066,99.086
0.24,110.31,7.066,99.086
0.24,110.31,7.066,99.086
0.24,110.31,7.066,99.086
0.25,110.31,7.066,99.086
0.25,110.31,7.066,99.086
0.25,110.31,7.066,99.086
0.25,110.32,7.066,99.085
0.25,110.32,7.066,99.085
0.26,110.32,7.066,99.085
0.26,110.32,7.066,99.085
0.26,110.32,7.066,99.085
0.26,110.32,7.066,99.085
0.26,110.32,7.066,99.084
0.26,110.32,7.066,99.084
0.26,110.32,7.065,99.084
0.27,110.32,7.065,99.084
0.27,110.32,7.065,99.084
0.27,110.32,7.065,99.084
0.27,110.32,7.065,99.084
0.27,110.32,7.065,99.084
0.28,110.33,7.065,99.084
0.28,110.33,7.065,99.083
0.28,110.33,7.065,99.083
0.28,110.33,7.065,99.083
0.28,110.33,7.065,99.083
0.28,110.33,7.065,99.083
0.29,110.33,7.065,99.083
0.29,110.33,7.065,99.083
0.29,110.33,7.065,99.083
0.29,110.33,7.065,99.082
0.29,110.33,7.065,99.082
0.29,110.33,7.065,99.082
0.30,110.33,7.065,99.082
0.30,110.33,7.065,99.082
0.30,110.33,7.065,99.082
0.30,110.34,7.065,99.082
0.30,110.34,7.065,99.081
0.30,110.34,7.065,99.081
0.30,110.34,7.065,99.082
0.31,110.34,7.065,99.082
0.31,110.34,7.065,99.081
0.31,110.34,7.065,99.081
0.31,110.34,7.065,99.081
0.31,110.34,7.065,99.081
0.31,110.34,7.065,99.081
0.32,110.34,7.065,99.080
0.32,110.34,7.065,99.080
0.32,110.34,7.065,99.080
0.32,110.34,7.065,99.080
0.32,110.34,7.065,99.080
0.33,110.35,7.065,99.080
0.33,110.35,7.065,99.079
0.33,110.35,7.065,99.079
0.33,110.35,7.065,99.079
0.33,110.35,7.065,99.079
0.33,110.35,7.065,99.079
0.34,110.35,7.065,99.079
0.34,110.35,7.065,99.079
0.34,110.35,7.065,99.079
0.34,110.35,7.065,99.079
0.34,110.35,7.065,99.078
0.34,110.35,7.065,99.078
0.35,110.35,7.065,99.078
0.35,110.35,7.065,99.078
0.35,110.35,7.065,99.078
0.35,110.35,7.065,99.078
0.35,110.35,7.065,99.078
0.35,110.35,7.065,99.078
0.35,110.36,7.065,99.078
0.36,110.36,7.065,99.078
0.36,110.36,7.065,99.078
0.36,110.36,7.065,99.078
0.36,110.36,7.065,99.078
0.36,110.36,7.065,99.078
0.36,110.36,7.065,99.078
0.37,110.36,7.065,99.078
0.37,110.36,7.065,99.078
0.37,110.36,7.065,99.078
0.37,110.36,7.065,99.078
0.37,110.36,7.065,99.078
0.38,110.36,7.065,99.078
0.38,110.36,7.065,99.078
0.38,110.36,7.065,99.078
0.38,110.36,7.065,99.078
0.38,110.36,7.065,99.077
0.38,110.36,7.065,99.077
0.39,110.36,7.065,99.077
0.39,110.36,7.065,99.077
0.39,110.37,7.065,99.077
0.39,110.37,7.065,99.077
0.39,110.37,7.065,99.077
0.39,110.37,7.065,99.077
0.40,110.37,7.065,99.077
0.40,110.37,7.065,99.077
0.40,110.37,7.065,99.076
0.40,110.37,7.065,99.076
0.40,110.37,7.065,99.076
0.40,110.37,7.065,99.076
0.40,110.37,7.065,99.076
0.41,110.37,7.065,99.076
0.41,110.37,7.065,99.076
0.41,110.37,7.065,99.076
0.41,110.37,7.065,99.076
0.41,110.37,7.065,99.076
0.41,110.37,7.065,99.075
0.42,110.37,7.065,99.075
0.42,110.37,7.065,99.075
0.42,110.37,7.065,99.075
0.42,110.37,7.065,99.075
0.42,110.38,7.065,99.075
0.43,110.38,7.065,99.075
0.43,110.38,7.065,99.075
0.43,110.38,7.065,99.075
0.43,110.38,7.065,99.075
0.43,110.38,7.065,99.075
0.43,110.38,7.065,99.075
0.44,110.38,7.065,99.075
0.44,110.38,7.065,99.075
0.44,110.38,7.065,99.074
0.44,110.38,7.065,99.074
0.44,110.38,7.065,99.074
0.44,110.38,7.065,99.074
0.45,110.38,7.065,99.074
0.45,110.38,7.065,99.074
0.45,110.38,7.065,99.074
0.45,110.38,7.065,99.074
0.45,110.38,7.065,99.074
0.45,110.38,7.065,99.074
0.45,110.38,7.065,99.074
0.46,110.38,7.065,99.074
0.46,110.38,7.065,99.074
0.46,110.38,7.065,99.074
0.46,110.38,7.065,99.074
0.46,110.39,7.065,99.074
0.46,110.39,7.065,99.074
0.47,110.39,7.065,99.073
0.47,110.39,7.065,99.073
0.47,110.39,7.065,99.073
0.47,110.39,7.065,99.073
0.47,110.39,7.065,99.073
0.48,110.39,7.065,99.073
0.48,110.39,7.065,99.073
0.48,110.39,7.065,99.073
0.48,110.39,7.065,99.073
0.48,110.39,7.065,99.073
0.48,110.39,7.065,99.073
0.49,110.39,7.065,99.073
0.49,110.39,7.065,99.073
0.49,110.39,7.065,99.073
0.49,110.39,7.065,99.072
0.49,110.39,7.065,99.072
0.49,110.39,7.065,99.072
0.50,110.39,7.065,99.072
0.50,110.39,7.065,99.072
0.50,110.39,7.065,99.072
0.50,110.39,7.065,99.072
0.50,110.39,7.065,99.072
0.50,110.39,7.065,99.071
0.50,110.39,7.065,99.071
0.51,110.40,7.065,99.071
0.51,110.40,7.065,99.071
0.51,110.40,7.065,99.071
0.51,110.40,7.065,99.070
0.51,110.40,7.065,99.070
0.51,110.40,7.065,99.070
0.52,110.40,7.065,99.070
0.52,110.40,7.065,99.070
0.52,110.40,7.065,99.070
0.52,110.40,7.065,99.070
0.52,110.40,7.065,99.070
0.53,110.40,7.065,99.070
0.53,110.40,7.065,99.070
0.53,110.40,7.065,99.070
0.53,110.40,7.064,99.070
0.53,110.40,7.064,99.070
0.53,110.40,7.064,99.070
0.53,110.40,7.064,99.070
0.54,110.40,7.064,99.070
0.54,110.40,7.064,99.070
0.54,110.40,7.064,99.069
0.54,110.40,7.064,99.069
0.54,110.40,7.064,99.069
0.55,110.40,7.064,99.069
0.55,110.40,7.064,99.069
0.55,110.40,7.064,99.069
0.55,110.40,7.064,99.069
0.55,110.40,7.064,99.069
0.55,110.40,7.064,99.069
0.55,110.41,7.064,99.069
0.56,110.41,7.064,99.069
0.56,110.41,7.064,99.069
0.56,110.41,7.064,99.069
0.56,110.41,7.064,99.069
0.56,110.41,7.064,99.068
0.57,110.41,7.064,99.068
0.57,110.41,7.064,99.068
0.57,110.41,7.064,99.068
0.57,110.41,7.064,99.068
0.57,110.41,7.064,99.068
0.57,110.41,7.064,99.068
0.58,110.41,7.064,99.068
0.58,110.41,7.064,99.068
0.58,110.41,7.064,99.068
0.58,110.41,7.064,99.068
0.58,110.41,7.064,99.067
0.58,110.41,7.064,99.067
0.58,110.41,7.064,99.067
0.59,110.41,7.064,99.067
0.59,110.41,7.064,99.067
0.59,110.41,7.064,99.067
0.59,110.41,7.064,99.067
0.59,110.41,7.064,99.067
0.60,110.41,7.064,99.067
0.60,110.41,7.064,99.067
0.60,110.41,7.064,99.067
0.60,110.41,7.064,99.067
0.60,110.41,7.064,99.067
0.60,110.41,7.064,99.067
0.60,110.41,7.064,99.067
0.61,110.42,7.064,99.067
0.61,110.42,7.064,99.067
0.61,110.42,7.064,99.066
0.61,110.42,7.064,99.066
0.61,110.42,7.064,99.066
0.62,110.42,7.064,99.066
0.62,110.42,7.064,99.066
0.62,110.42,7.064,99.065
0.62,110.42,7.064,99.065
0.62,110.42,7.064,99.065
0.62,110.42,7.064,99.065
0.63,110.42,7.064,99.065
0.63,110.42,7.064,99.065
0.63,110.42,7.064,99.065
0.63,110.42,7.064,99.065
0.63,110.42,7.064,99.065
0.63,110.42,7.064,99.065
0.63,110.42,7.064,99.065
0.64,110.42,7.064,99.065
0.64,110.42,7.064,99.065
0.64,110.42,7.064,99.065
0.64,110.42,7.064,99.065
0.64,110.42,7.064,99.065
0.65,110.42,7.064,99.065
0.65,110.42,7.064,99.065
0.65,110.42,7.064,99.065
0.65,110.42,7.064,99.065
0.65,110.42,7.064,99.064
0.65,110.42,7.064,99.064
0.65,110.42,7.064,99.064
0.66,110.42,7.064,99.064
0.66,110.42,7.064,99.064
0.66,110.42,7.064,99.064
0.66,110.42,7.064,99.064
0.66,110.42,7.064,99.064
0.67,110.42,7.064,99.064
0.67,110.42,7.064,99.064
0.67,110.42,7.064,99.064
0.67,110.42,7.064,99.064
0.67,110.42,7.064,99.064
0.67,110.43,7.064,99.064
0.68,110.43,7.064,99.064
0.68,110.43,7.064,99.064
0.68,110.43,7.064,99.063
0.68,110.43,7.064,99.063
0.68,110.43,7.064,99.063
0.68,110.43,7.064,99.063
0.68,110.43,7.064,99.063
0.69,110.43,7.064,99.063
0.69,110.43,7.064,99.063
0.69,110.43,7.064,99.063
0.69,110.43,7.064,99.063
0.69,110.43,7.064,99.063
0.70,110.43,7.064,99.063
0.70,110.43,7.064,99.063
0.70,110.43,7.064,99.063
0.70,110.43,7.064,99.063
0.70,110.43,7.064,99.063
0.70,110.43,7.064,99.062
0.70,110.43,7.064,99.062
0.71,110.43,7.064,99.062
0.71,110.43,7.064,99.062
0.71,110.43,7.064,99.062
0.71,110.43,7.064,99.062
0.71,110.43,7.064,99.062
0.72,110.43,7.064,99.062
0.72,110.43,7.064,99.062
0.72,110.43,7.064,99.062
0.72,110.43,7.064,99.062
0.72,110.43,7.064,99.062
0.72,110.43,7.064,99.062
0.73,110.43,7.064,99.062
0.73,110.43,7.064,99.062
0.73,110.43,7.064,99.062
0.73,110.43,7.064,99.062
0.73,110.43,7.064,99.062
0.73,110.43,7.064,99.062
0.73,110.43,7.064,99.062
0.74,110.43,7.064,99.062
0.74,110.43,7.064,99.062
0.74,110.43,7.064,99.062
0.74,110.43,7.064,99.062
0.74,110.43,7.064,99.062
0.75,110.43,7.064,99.062
0.75,110.43,7.064,99.062
0.75,110.43,7.064,99.061
0.75,110.43,7.064,99.061
0.75,110.43,7.064,99.061
0.75,110.43,7.064,99.061
0.75,110.43,7.064,99.061
0.76,110.43,7.064,99.061
0.76,110.43,7.064,99.061
0.76,110.43,7.064,99.061
0.76,110.43,7.064,99.060
0.76,110.43,7.064,99.060
0.77,110.43,7.064,99.060
0.77,110.43,7.064,99.060
0.77,110.43,7.064,99.060
0.77,110.43,7.064,99.060
0.77,110.43,7.064,99.060
0.77,110.43,7.064,99.060
0.78,110.43,7.064,99.060
0.78,110.43,7.064,99.060
0.78,110.43,7.064,99.060
0.78,110.43,7.064,99.060
0.78,110.43,7.064,99.060
0.78,110.43,7.064,99.059
0.78,110.43,7.064,99.059
0.79,110.43,7.064,99.059
0.79,110.43,7.064,99.059
0.79,110.43,7.064,99.060
0.79,110.43,7.064,99.060
0.79,110.43,7.064,99.059
0.80,110.43,7.064,99.059
0.80,110.43,7.064,99.059
0.80,110.43,7.064,99.059
0.80,110.43,7.064,99.059
0.80,110.43,7.064,99.059
0.80,110.43,7.064,99.059
0.80,110.43,7.064,99.059
0.81,110.43,7.064,99.059
0.81,110.44,7.064,99.059
0.81,110.44,7.064,99.059
0.81,110.44,7.064,99.059
0.81,110.44,7.064,99.059
0.82,110.44,7.064,99.059
0.82,110.44,7.064,99.059
0.82,110.44,7.064,99.059
0.82,110.44,7.064,99.059
0.82,110.44,7.064,99.059
0.82,110.44,7.064,99.059
0.83,110.44,7.064,99.059
0.83,110.44,7.064,99.059
0.83,110.44,7.064,99.058
0.83,110.44,7.064,99.058
0.83,110.44,7.064,99.058
0.83,110.44,7.064,99.058
0.83,110.44,7.064,99.058
0.84,110.44,7.064,99.058
0.84,110.44,7.064,99.058
0.84,110.44,7.064,99.058
0.84,110.44,7.064,99.058
0.84,110.44,7.064,99.058
0.85,110.44,7.064,99.058
0.85,110.44,7.064,99.058
0.85,110.44,7.064,99.058
0.85,110.44,7.064,99.058
0.85,110.44,7.064,99.058
0.85,110.44,7.064,99.058
0.85,110.44,7.064,99.058
0.86,110.44,7.064,99.058
0.86,110.44,7.064,99.058
0.86,110.44,7.064,99.058
0.86,110.44,7.064,99.058
0.86,110.44,7.064,99.058
0.87,110.44,7.064,99.058
0.87,110.44,7.064,99.058
0.87,110.44,7.064,99.058
0.87,110.44,7.064,99.057
0.87,110.44,7.064,99.057
0.87,110.44,7.064,99.057
0.88,110.44,7.064,99.057
0.88,110.44,7.064,99.057
0.88,110.44,7.064,99.057
0.88,110.44,7.064,99.057
0.88,110.44,7.064,99.057
0.88,110.44,7.064,99.057
0.88,110.44,7.064,99.056
0.89,110.44,7.064,99.056
0.89,110.44,7.064,99.056
0.89,110.44,7.063,99.056
0.89,110.44,7.064,99.056
0.89,110.44,7.064,99.056
0.90,110.44,7.064,99.056
0.90,110.44,7.063,99.056
0.90,110.44,7.063,99.056
0.90,110.44,7.063,99.056
0.90,110.44,7.063,99.056
0.90,110.44,7.063,99.056
0.90,110.44,7.063,99.056
0.91,110.44,7.063,99.056
0.91,110.44,7.063,99.055
0.91,110.44,7.063,99.055
0.91,110.44,7.063,99.055
0.91,110.44,7.063,99.055
0.92,110.44,7.063,99.055
0.92,110.44,7.063,99.055
0.92,110.44,7.063,99.055
0.92,110.44,7.063,99.055
0.92,110.44,7.063,99.055
0.92,110.44,7.063,99.055
0.93,110.44,7.063,99.055
0.93,110.44,7.063,99.055
0.93,110.44,7.063,99.055
0.93,110.44,7.063,99.055
0.93,110.44,7.063,99.055
0.93,110.44,7.063,99.055
0.93,110.44,7.063,99.055
0.94,110.44,7.063,99.055
0.94,110.44,7.063,99.055
0.94,110.44,7.063,99.055
0.94,110.44,7.063,99.055
0.94,110.44,7.063,99.055
0.95,110.44,7.063,99.055
0.95,110.44,7.063,99.055
0.95,110.44,7.063,99.055
0.95,110.44,7.063,99.055
0.95,110.44,7.063,99.055
0.95,110.44,7.063,99.055
0.95,110.44,7.063,99.055
0.96,110.44,7.063,99.055
0.96,110.44,7.063,99.054
0.96,110.44,7.063,99.054
0.96,110.44,7.063,99.054
0.96,110.44,7.063,99.054
0.97,110.44,7.063,99.054
0.97,110.44,7.063,99.054
0.97,110.44,7.063,99.054
0.97,110.44,7.063,99.054
0.97,110.44,7.063,99.054
0.97,110.44,7.063,99.054
0.98,110.44,7.063,99.054
0.98,110.44,7.063,99.053
0.98,110.44,7.063,99.053
0.98,110.44,7.063,99.053
0.98,110.44,7.063,99.053
0.98,110.44,7.063,99.053
0.98,110.44,7.063,99.053
0.99,110.44,7.063,99.053
0.99,110.44,7.063,99.053
0.99,110.44,7.063,99.053
0.99,110.44,7.063,99.053
0.99,110.44,7.063,99.053
1.00,110.44,7.063,99.053
1.00,110.44,7.063,99.053
1.00,110.44,7.063,99.053

[step]
Ramp 10.00 °C/min to 400.00 °C
Time,Temperature,Weight,Weight,Deriv. Weight
min,°C,mg,%,% / °C
1.00,110.44,7.063,99.054,-2977.30
1.02,110.44,7.231,101.400,-695.979
1.05,110.44,7.232,101.425,7.23544
1.07,110.44,7.230,101.396,-8.09525
1.09,110.45,7.230,101.396,-0.925195
1.12,110.46,7.231,101.398,-0.537026
1.14,110.49,7.230,101.398,0.0323736
1.16,110.53,7.230,101.394,-0.0780476
1.19,110.59,7.230,101.393,-0.0152584
1.21,110.66,7.230,101.392,1.89595e-3
1.23,110.75,7.230,101.390,-0.0147813
1.26,110.85,7.230,101.390,-0.0176734
1.28,110.97,7.230,101.388,-2.76735e-3
1.30,111.11,7.230,101.386,-0.0153895
1.33,111.26,7.230,101.384,-0.0193600
1.35,111.43,7.229,101.381,-0.0246456
1.37,111.62,7.229,101.379,-0.0109700
1.40,111.81,7.229,101.375,-0.0129020
1.42,112.02,7.229,101.372,-0.0171157
1.44,112.23,7.228,101.369,-0.0138044
1.47,112.44,7.228,101.366,-0.0196133
1.49,112.66,7.228,101.361,-0.0220572
1.51,112.88,7.228,101.359,-0.0124207
1.54,113.10,7.227,101.355,-0.0191072
1.56,113.32,7.227,101.351,-0.0225653
1.58,113.54,7.227,101.348,-0.0165862
1.61,113.76,7.227,101.344,-0.0162982
1.63,113.98,7.226,101.340,-0.0135036
1.65,114.21,7.226,101.337,-0.0124852
1.68,114.44,7.226,101.333,-0.0225654
1.70,114.66,7.226,101.328,-0.0213827
1.72,114.89,7.225,101.325,-0.0183430
1.75,115.13,7.225,101.321,-0.0208457
1.77,115.36,7.225,101.317,-0.0193968
1.79,115.59,7.224,101.313,-0.0159211
1.82,115.82,7.224,101.309,-0.0205879
1.84,116.06,7.224,101.306,-0.0147590
1.86,116.29,7.224,101.302,-0.0134893
1.89,116.52,7.223,101.297,-0.0121638
1.91,116.75,7.223,101.293,-0.0181944
1.93,116.99,7.223,101.291,-5.37802e-3
1.96,117.22,7.223,101.286,-0.0158126
1.98,117.45,7.222,101.283,-0.0104215
2.00,117.68,7.222,101.279,-0.0193208
2.03,117.92,7.222,101.276,-0.0148064
2.05,118.15,7.221,101.272,-9.25049e-3
2.07,118.38,7.221,101.268,-5.16932e-3
2.10,118.62,7.221,101.265,-0.0163276
2.12,118.85,7.221,101.261,-0.0134382
2.14,119.08,7.220,101.257,-0.0214401
2.17,119.32,7.220,101.253,-0.0101392
2.19,119.55,7.220,101.250,-0.0206364
2.21,119.79,7.220,101.247,-0.0196375
2.24,120.02,7.219,101.244,-0.0160743
2.26,120.25,7.219,101.240,-0.0203169
2.28,120.49,7.219,101.237,-0.0130167
2.31,120.72,7.219,101.234,-8.03890e-3
2.33,120.96,7.219,101.231,-0.0105123
2.35,121.19,7.218,101.227,-0.0147119
2.38,121.42,7.218,101.225,-7.81396e-3
2.40,121.66,7.218,101.220,-0.0142134
2.42,121.89,7.218,101.217,-0.0192897
2.45,122.12,7.217,101.215,-0.0163649
2.47,122.36,7.217,101.212,-6.71821e-3
2.49,122.59,7.217,101.208,-7.26471e-3
2.52,122.83,7.217,101.205,-0.0115621
2.54,123.06,7.217,101.202,-0.0182782
2.56,123.29,7.216,101.199,-0.0156307
2.59,123.53,7.216,101.195,-0.0126182
2.61,123.76,7.216,101.192,-0.0125255
2.63,123.99,7.216,101.189,-0.0113887
2.66,124.23,7.215,101.187,-8.36975e-3
2.68,124.46,7.215,101.184,-0.0121639
2.70,124.69,7.215,101.181,-0.0124795
2.73,124.93,7.215,101.177,-0.0167941
2.75,125.16,7.215,101.174,-9.93144e-3
2.77,125.39,7.214,101.171,-0.0113959
2.80,125.63,7.214,101.169,-0.0174862
2.82,125.86,7.214,101.166,-0.0167031
2.84,126.09,7.214,101.163,-8.60566e-3
2.87,126.33,7.214,101.160,-9.92497e-3
2.89,126.56,7.213,101.157,-0.0121121
2.91,126.80,7.213,101.154,-0.0104645
2.94,127.03,7.213,101.151,-0.0142622
2.96,127.26,7.213,101.149,-9.14284e-3
2.98,127.50,7.213,101.146,-0.0136260
3.01,127.73,7.212,101.143,-0.0134938
3.03,127.96,7.212,101.141,-9.20329e-3
3.05,128.20,7.212,101.138,-3.66262e-3
3.08,128.43,7.212,101.136,-8.52179e-3
3.10,128.66,7.212,101.132,-0.0129579
3.12,128.90,7.211,101.131,-5.26316e-3
3.15,129.13,7.211,101.128,-5.76204e-3
3.17,129.36,7.211,101.126,-8.36547e-3
3.19,129.60,7.211,101.124,-0.0117046
3.22,129.83,7.211,101.121,-0.0137591
3.24,130.06,7.211,101.119,-2.60551e-3
3.26,130.30,7.210,101.117,-0.0124906
3.29,130.53,7.210,101.114,-0.0120956
3.31,130.76,7.210,101.111,-0.0121873
3.33,131.00,7.210,101.110,-9.16831e-3
3.36,131.23,7.210,101.107,-0.0108307
3.38,131.46,7.210,101.105,-6.42429e-3
3.40,131.70,7.209,101.101,-0.0159174
3.43,131.93,7.209,101.099,-0.0124152
3.45,132.16,7.209,101.096,-0.0156967
3.47,132.40,7.209,101.093,-0.0193401
3.50,132.63,7.209,101.091,-0.0176108
3.52,132.86,7.208,101.088,-0.0107482
3.54,133.10,7.208,101.086,-0.0139549
3.57,133.33,7.208,101.083,-0.0111348
3.59,133.56,7.208,101.080,-6.96845e-3
3.61,133.80,7.208,101.079,-5.91466e-3
3.64,134.03,7.208,101.077,-0.0113793
3.66,134.26,7.207,101.075,-3.11927e-3
3.68,134.49,7.207,101.073,-8.66972e-3
3.71,134.73,7.207,101.071,-2.70438e-3
3.73,134.96,7.207,101.069,-0.0109032
3.75,135.19,7.207,101.067,-0.0104882
3.78,135.43,7.207,101.064,-4.98813e-3
3.80,135.66,7.207,101.065,-0.0103051
3.82,135.89,7.207,101.062,-0.0119558
3.85,136.13,7.206,101.059,-0.0101648
3.87,136.36,7.206,101.056,-0.0147046
3.89,136.59,7.206,101.054,-9.30928e-3
3.92,136.83,7.206,101.051,-0.0110021
3.94,137.06,7.206,101.049,-0.0130673
3.96,137.29,7.205,101.046,-0.0119177
3.99,137.52,7.205,101.043,-0.0114574
4.01,137.76,7.205,101.041,-1.64965e-3
4.03,137.99,7.205,101.039,-9.25414e-3
4.06,138.22,7.205,101.037,-0.0120833
4.08,138.46,7.205,101.035,-0.0100733
4.10,138.69,7.204,101.032,-0.0102059
4.13,138.92,7.204,101.030,-0.0113886
4.15,139.16,7.204,101.028,-8.87466e-3
4.17,139.39,7.204,101.026,-0.0168910
4.20,139.62,7.204,101.023,-0.0114957
4.22,139.86,7.204,101.021,-7.88147e-3
4.24,140.09,7.203,101.019,-0.0123316
4.27,140.32,7.203,101.016,-0.0140290
4.29,140.56,7.203,101.015,-9.12844e-3
4.31,140.79,7.203,101.014,-8.53756e-3
4.34,141.02,7.203,101.011,-0.0129936
4.36,141.25,7.203,101.009,-0.0103330
4.38,141.49,7.203,101.008,-5.83104e-3
4.41,141.72,7.202,101.005,-7.06422e-3
4.43,141.95,7.202,101.004,-8.24724e-3
4.45,142.19,7.202,101.002,-3.02109e-3
4.48,142.42,7.202,101.000,-9.51079e-3
4.50,142.65,7.202,100.998,-8.63640e-3
4.52,142.89,7.202,100.996,-8.95635e-3
4.55,143.12,7.202,100.994,-7.63120e-3
4.57,143.35,7.202,100.992,-8.87057e-3
4.59,143.59,7.201,100.991,-7.32601e-3
4.62,143.82,7.201,100.989,-8.01346e-3
4.64,144.05,7.201,100.987,-7.32925e-3
4.66,144.29,7.201,100.985,-3.66555e-3
4.69,144.52,7.201,100.981,-0.0261952
4.71,144.75,7.201,100.978,-7.83448e-3
4.73,144.99,7.200,100.976,-5.40788e-3
4.76,145.22,7.200,100.976,0.0175151
4.78,145.45,7.200,100.977,-7.33740e-3
4.80,145.69,7.200,100.975,-6.37430e-3
4.83,145.92,7.200,100.974,-4.35253e-3
4.85,146.15,7.200,100.972,-0.0139259
4.87,146.39,7.200,100.970,-4.80902e-3
4.90,146.62,7.200,100.969,-0.0107143
4.92,146.85,7.200,100.966,-7.64803e-3
4.94,147.09,7.200,100.965,2.38186e-3
4.97,147.32,7.199,100.963,-6.46196e-3
4.99,147.55,7.199,100.962,-5.18086e-3
5.01,147.78,7.199,100.960,-4.21927e-3
5.04,148.02,7.199,100.958,-4.77432e-3
5.06,148.25,7.199,100.957,-6.65748e-3
5.08,148.48,7.199,100.955,-0.0155718
5.11,148.71,7.199,100.954,-1.33193e-3
5.13,148.95,7.199,100.952,-1.92714e-3
5.15,149.18,7.199,100.950,-7.15430e-3
5.18,149.41,7.198,100.949,-4.81264e-3
5.20,149.65,7.198,100.945,-0.0261058
5.22,149.88,7.198,100.945,5.95238e-4
5.25,150.11,7.198,100.944,-6.68793e-3
5.27,150.35,7.198,100.943,-8.24782e-3
5.29,150.58,7.198,100.941,-8.85321e-3
5.32,150.81,7.198,100.939,-7.70862e-3
5.34,151.04,7.198,100.938,-3.95166e-3
5.36,151.28,7.198,100.937,-5.42203e-3
5.39,151.51,7.197,100.935,-6.61480e-3
5.41,151.74,7.197,100.933,-2.89256e-3
5.43,151.97,7.197,100.932,-3.02852e-3
5.46,152.21,7.197,100.930,-7.83838e-3
5.48,152.44,7.197,100.928,-5.68286e-3
5.50,152.67,7.197,100.927,-7.64795e-3
5.53,152.91,7.197,100.926,-7.55975e-3
5.55,153.14,7.197,100.924,-4.07850e-3
5.57,153.37,7.197,100.923,-7.84213e-3
5.60,153.61,7.197,100.922,-8.81543e-3
5.62,153.84,7.196,100.920,-7.31112e-3
5.64,154.07,7.196,100.918,-0.0135757
5.67,154.30,7.196,100.917,-6.86131e-3
5.69,154.53,7.196,100.916,-2.39328e-3
5.71,154.77,7.196,100.914,-1.88361e-3
5.74,155.00,7.196,100.913,-5.82569e-3
5.76,155.23,7.196,100.912,-6.04237e-3
5.78,155.47,7.196,100.911,-6.99092e-3
5.81,155.70,7.196,100.908,-5.79533e-3
5.83,155.93,7.196,100.908,-1.87230e-3
5.85,156.17,7.195,100.907,-9.91032e-3
5.88,156.40,7.195,100.906,-9.14223e-3
5.90,156.63,7.195,100.904,-7.00119e-3
5.92,156.87,7.195,100.902,-8.93437e-3
5.95,157.10,7.195,100.901,-4.03477e-3
5.97,157.33,7.195,100.899,-8.34713e-3
5.99,157.57,7.195,100.899,-2.97784e-3
6.02,157.80,7.195,100.897,-5.12893e-3
6.04,158.03,7.195,100.896,-0.0110279
6.06,158.27,7.195,100.894,-4.11903e-4
6.09,158.50,7.194,100.893,-3.11210e-3
6.11,158.73,7.194,100.892,4.25885e-3
6.13,158.97,7.194,100.891,-0.0107715
6.16,159.20,7.194,100.889,-6.69595e-3
6.18,159.43,7.194,100.889,-9.45032e-3
6.20,159.67,7.194,100.887,-3.89739e-3
6.23,159.90,7.194,100.886,-5.91323e-3
6.25,160.13,7.194,100.885,-5.49879e-3
6.27,160.36,7.194,100.883,1.83203e-3
6.30,160.60,7.194,100.882,-3.06777e-3
6.32,160.83,7.194,100.882,-3.34249e-3
6.34,161.06,7.194,100.881,-6.55134e-3
6.37,161.30,7.194,100.880,-3.21016e-3
6.39,161.53,7.193,100.878,-2.06532e-3
6.41,161.76,7.193,100.878,2.75735e-4
6.44,162.00,7.193,100.877,-9.65276e-4
6.46,162.23,7.193,100.876,-6.20975e-3
6.48,162.46,7.193,100.874,-5.24105e-3
6.51,162.69,7.193,100.873,-6.88680e-4
6.53,162.93,7.193,100.873,-0.0106836
6.55,163.16,7.193,100.872,-3.43567e-3
6.58,163.39,7.193,100.870,-1.32724e-3
6.60,163.63,7.193,100.869,-8.87885e-3
6.62,163.86,7.193,100.868,-6.04235e-3
6.65,164.09,7.193,100.867,-4.76314e-3
6.67,164.32,7.193,100.866,-4.35277e-3
6.69,164.56,7.192,100.865,-5.77276e-3
6.72,164.79,7.192,100.863,-0.0106316
6.74,165.02,7.192,100.862,-1.55857e-3
6.76,165.26,7.192,100.860,0.0144428
6.79,165.49,7.192,100.861,4.56276e-5
6.81,165.72,7.192,100.859,1.46761e-3
6.83,165.96,7.192,100.858,-5.91664e-3
6.86,166.19,7.192,100.857,-4.17154e-3
6.88,166.42,7.192,100.856,-4.12263e-3
6.90,166.66,7.192,100.855,-3.34357e-3
6.93,166.89,7.192,100.854,-1.00733e-3
6.95,167.12,7.192,100.852,-4.53297e-3
6.97,167.35,7.191,100.851,-0.0122758
7.00,167.59,7.191,100.851,-4.48718e-3
7.02,167.82,7.191,100.849,-2.56352e-3
7.04,168.05,7.191,100.848,-5.49451e-3
7.07,168.29,7.191,100.847,-4.48689e-3
7.09,168.52,7.191,100.846,-6.77922e-3
7.11,168.75,7.191,100.846,1.78738e-3
7.14,168.99,7.191,100.845,-4.08296e-3
7.16,169.22,7.191,100.843,-3.99286e-3
7.18,169.45,7.191,100.842,-7.43802e-3
7.21,169.69,7.191,100.842,-1.69866e-3
7.23,169.92,7.191,100.840,-4.68198e-3
7.25,170.15,7.191,100.839,-9.13124e-3
7.28,170.38,7.191,100.838,-2.01881e-3
7.30,170.62,7.190,100.837,-8.20875e-3
7.32,170.85,7.190,100.836,8.25730e-4
7.35,171.08,7.190,100.835,-3.25390e-3
7.37,171.32,7.190,100.834,-7.19666e-3
7.39,171.55,7.190,100.833,-6.45901e-3
7.42,171.78,7.190,100.832,-6.32158e-3
7.44,172.01,7.190,100.830,-3.71219e-3
7.46,172.25,7.190,100.830,-4.03387e-3
7.49,172.48,7.190,100.829,-7.00995e-3
7.51,172.71,7.190,100.827,-3.39450e-3
7.53,172.95,7.190,100.826,-3.99083e-3
7.56,173.18,7.190,100.826,2.38465e-3
7.58,173.41,7.190,100.825,-5.32031e-3
7.60,173.65,7.190,100.824,9.16849e-3
7.63,173.88,7.190,100.823,-9.62420e-4
7.65,174.11,7.189,100.822,1.69609e-3
7.67,174.34,7.189,100.821,-5.58608e-3
7.70,174.58,7.189,100.820,2.93040e-3
7.72,174.81,7.189,100.819,-8.98077e-3
7.74,175.04,7.189,100.819,-2.88706e-3
7.77,175.28,7.189,100.818,-5.95872e-3
7.79,175.51,7.189,100.817,-7.29096e-3
7.81,175.74,7.189,100.817,-6.88267e-4
7.84,175.98,7.189,100.816,-4.26514e-3
7.86,176.21,7.189,100.814,9.18610e-5
7.88,176.44,7.189,100.813,1.10045e-3
7.91,176.67,7.189,100.812,-8.80278e-3
7.93,176.91,7.189,100.812,-7.10545e-3
7.95,177.14,7.189,100.811,1.83377e-4
7.98,177.37,7.189,100.810,-4.58295e-3
8.00,177.61,7.188,100.809,-8.79927e-3
8.02,177.84,7.188,100.808,-5.90994e-3
8.05,178.07,7.188,100.807,-2.42953e-3
8.07,178.31,7.188,100.805,-0.0111867
8.09,178.54,7.188,100.804,-2.98130e-3
8.12,178.77,7.188,100.804,5.97232e-4
8.14,179.00,7.188,100.803,-6.57599e-3
8.16,179.24,7.188,100.802,-4.74003e-3
8.19,179.47,7.188,100.801,-1.79338e-3
8.21,179.70,7.188,100.800,-3.16955e-3
8.23,179.93,7.188,100.798,-3.80458e-3
8.26,180.17,7.188,100.797,2.83564e-3
8.28,180.40,7.188,100.796,3.74679e-3
8.30,180.63,7.188,100.796,1.73358e-3
8.33,180.87,7.187,100.794,-0.0119094
8.35,181.10,7.187,100.794,-5.15907e-3
8.37,181.34,7.187,100.794,-6.94698e-3
8.40,181.57,7.187,100.793,-8.15412e-3
8.42,181.80,7.187,100.792,-7.98898e-3
8.44,182.04,7.187,100.790,7.35024e-4
8.47,182.27,7.187,100.790,-4.59495e-3
8.49,182.50,7.187,100.789,-5.78914e-3
8.51,182.73,7.187,100.788,-7.52639e-3
8.54,182.97,7.187,100.787,-8.80573e-3
8.56,183.20,7.187,100.787,-1.74037e-3
8.58,183.43,7.187,100.786,2.74786e-3
8.61,183.67,7.187,100.785,-2.97394e-3
8.63,183.90,7.187,100.784,-5.67595e-3
8.65,184.13,7.187,100.784,-1.32764e-3
8.68,184.37,7.187,100.783,-0.0160445
8.70,184.60,7.187,100.782,6.87737e-4
8.72,184.83,7.186,100.781,-0.0115103
8.75,185.06,7.186,100.780,3.62079e-3
8.77,185.30,7.186,100.779,-5.59120e-3
8.79,185.53,7.186,100.778,-4.99751e-3
8.82,185.76,7.186,100.778,3.39224e-3
8.84,186.00,7.186,100.777,-3.94382e-3
8.86,186.23,7.186,100.776,4.95162e-3
8.89,186.46,7.186,100.775,7.33903e-4
8.91,186.69,7.186,100.774,-7.38877e-3
8.93,186.93,7.186,100.773,-2.52471e-3
8.96,187.16,7.186,100.771,-6.42606e-4
8.98,187.39,7.186,100.771,-1.14733e-3
9.00,187.63,7.186,100.771,-1.37615e-4
9.03,187.86,7.186,100.769,-2.84416e-3
9.05,188.09,7.186,100.768,-5.96229e-4
9.07,188.32,7.186,100.768,-2.42896e-3
9.10,188.56,7.186,100.768,-1.05448e-3
9.12,188.79,7.185,100.767,-4.90551e-3
9.14,189.02,7.185,100.765,-6.37615e-3
9.17,189.26,7.185,100.764,-2.29526e-3
9.19,189.49,7.185,100.763,3.67630e-4
9.21,189.72,7.185,100.762,-3.26039e-3
9.24,189.95,7.185,100.761,1.23898e-3
9.26,190.19,7.185,100.761,-7.70488e-3
9.28,190.42,7.185,100.760,9.21553e-5
9.31,190.65,7.185,100.760,1.37673e-4
9.33,190.89,7.185,100.758,-1.00853e-3
9.35,191.12,7.185,100.758,-3.52969e-3
9.38,191.35,7.185,100.757,-4.76741e-3
9.40,191.59,7.185,100.756,9.30018e-3
9.42,191.82,7.185,100.756,-2.84219e-3
9.45,192.05,7.185,100.755,-2.24536e-3
9.47,192.28,7.185,100.755,7.78909e-4
9.49,192.52,7.185,100.754,3.39054e-3
9.52,192.75,7.185,100.754,1.42071e-3
9.54,192.98,7.185,100.753,-4.67461e-3
9.56,193.22,7.184,100.752,-5.17791e-3
9.59,193.45,7.184,100.751,-5.64107e-3
9.61,193.68,7.184,100.750,-2.15638e-3
9.63,193.92,7.184,100.749,-5.59633e-3
9.66,194.15,7.184,100.748,-8.67198e-3
9.68,194.38,7.184,100.747,-0.0111500
9.70,194.61,7.184,100.742,-1.97315e-3
9.73,194.85,7.184,100.743,2.15697e-3
9.75,195.08,7.184,100.742,1.23766e-3
9.77,195.31,7.184,100.742,3.48304e-3
9.80,195.54,7.184,100.742,4.07883e-3
9.82,195.78,7.184,100.742,-2.06115e-3
9.84,196.01,7.184,100.741,-8.70467e-4
9.87,196.24,7.184,100.740,-4.03124e-3
9.89,196.48,7.184,100.740,-3.34555e-3
9.91,196.71,7.184,100.739,-1.51233e-3
9.94,196.94,7.183,100.738,-2.84234e-3
9.96,197.18,7.183,100.738,-0.0100880
9.98,197.41,7.183,100.737,-1.28366e-3
10.01,197.64,7.183,100.736,-2.29187e-3
10.03,197.88,7.183,100.737,1.42125e-3
10.05,198.11,7.183,100.737,-6.50779e-3
10.08,198.34,7.183,100.735,-9.07424e-3
10.10,198.57,7.183,100.735,4.58018e-4
10.12,198.81,7.183,100.734,-3.20916e-4
10.15,199.04,7.183,100.733,-4.76190e-3
10.17,199.27,7.183,100.732,-4.39701e-3
10.19,199.51,7.183,100.731,-0.0109026
10.22,199.74,7.183,100.730,-7.05469e-3
10.24,199.97,7.183,100.730,-5.95238e-4
10.26,200.21,7.183,100.729,-0.0125916
10.29,200.44,7.183,100.728,-1.92389e-3
10.31,200.67,7.183,100.728,3.02465e-3
10.33,200.91,7.183,100.727,-8.81411e-3
10.36,201.14,7.183,100.726,8.85725e-3
10.38,201.37,7.183,100.726,6.42792e-4
10.40,201.60,7.183,100.726,4.63441e-3
10.43,201.84,7.183,100.726,-3.02627e-3
10.45,202.07,7.183,100.726,-3.80194e-3
10.47,202.30,7.183,100.725,2.28728e-4
10.50,202.54,7.182,100.725,-1.73720e-3
10.52,202.77,7.182,100.724,-3.24420e-3
10.54,203.00,7.182,100.723,-0.0113853
10.57,203.24,7.182,100.722,1.18993e-3
10.59,203.47,7.182,100.721,-9.88635e-3
10.61,203.71,7.182,100.720,-7.13793e-3
10.64,203.94,7.182,100.720,-6.63919e-3
10.66,204.17,7.182,100.719,-4.21053e-3
10.68,204.41,7.182,100.718,-8.50869e-3
10.71,204.64,7.182,100.717,-5.30650e-3
10.73,204.87,7.182,100.717,2.46992e-3
10.75,205.11,7.182,100.716,-1.32662e-3
10.78,205.34,7.182,100.715,-8.78555e-3
10.80,205.57,7.182,100.715,-0.0147856
10.82,205.81,7.182,100.715,9.61899e-4
10.85,206.04,7.182,100.714,-3.71219e-3
10.87,206.27,7.182,100.713,2.33731e-3
10.89,206.51,7.182,100.713,0.0104901
10.92,206.74,7.182,100.713,-2.70457e-3
10.94,206.97,7.182,100.712,-5.40689e-3
10.96,207.20,7.181,100.710,7.56187e-3
10.99,207.44,7.181,100.710,-3.85068e-3
11.01,207.67,7.181,100.710,-5.50205e-3
11.03,207.90,7.181,100.709,-9.16749e-3
11.06,208.14,7.181,100.707,-4.07985e-3
11.08,208.37,7.181,100.705,2.29501e-4
11.10,208.60,7.181,100.704,-4.26214e-3
11.13,208.84,7.181,100.704,5.49803e-4
11.15,209.07,7.181,100.703,-5.86469e-3
11.17,209.30,7.181,100.703,2.01650e-3
11.20,209.54,7.181,100.702,-7.37519e-3
11.22,209.77,7.181,100.701,-2.79676e-3
11.24,210.00,7.181,100.701,6.50779e-3
11.27,210.23,7.181,100.700,4.76773e-3
11.29,210.47,7.181,100.698,-5.73231e-3
11.31,210.70,7.181,100.698,1.74335e-3
11.34,210.93,7.181,100.698,3.12081e-3
11.36,211.17,7.181,100.698,-2.75301e-3
11.38,211.40,7.180,100.697,2.89051e-3
11.41,211.63,7.180,100.696,8.26598e-4
11.43,211.86,7.180,100.695,-0.0134430
11.45,212.10,7.180,100.694,-3.89908e-3
11.48,212.33,7.180,100.693,0.0100064
11.50,212.56,7.180,100.692,5.92369e-3
11.52,212.79,7.180,100.693,8.35820e-3
11.55,213.03,7.180,100.692,-0.0205882
11.57,213.26,7.180,100.691,-2.70229e-7
11.59,213.49,7.180,100.690,1.51515e-3
11.62,213.72,7.180,100.689,-9.22397e-3
11.64,213.96,7.180,100.689,-8.53619e-3
11.66,214.19,7.180,100.689,-8.08428e-3
11.69,214.42,7.180,100.688,-9.64584e-4
11.71,214.66,7.180,100.686,-2.38860e-3
11.73,214.89,7.180,100.685,-5.82569e-3
11.76,215.12,7.180,100.685,2.33689e-3
11.78,215.35,7.180,100.684,2.65697e-3
11.80,215.59,7.180,100.684,2.74859e-4
11.83,215.82,7.180,100.683,-1.23532e-3
11.85,216.05,7.179,100.683,5.03395e-4
11.87,216.29,7.179,100.682,7.27451e-3
11.90,216.52,7.179,100.683,-3.25204e-3
11.92,216.75,7.179,100.682,5.72617e-3
11.94,216.99,7.179,100.681,-8.98258e-3
11.97,217.22,7.179,100.682,-2.79705e-3
11.99,217.45,7.179,100.681,-0.0148989
12.01,217.69,7.179,100.680,-2.47609e-3
12.04,217.92,7.179,100.678,-0.0110045
12.06,218.15,7.179,100.678,7.46898e-3
12.08,218.39,7.179,100.677,-2.93211e-3
12.11,218.62,7.179,100.677,9.61706e-4
12.13,218.85,7.179,100.676,-3.48031e-3
12.15,219.08,7.179,100.674,4.76294e-3
12.18,219.32,7.179,100.673,-3.93610e-3
12.20,219.55,7.179,100.673,3.34089e-3
12.22,219.78,7.179,100.672,-8.73742e-3
12.25,220.02,7.179,100.672,2.83533e-3
12.27,220.25,7.179,100.671,-3.70665e-3
12.29,220.49,7.179,100.670,-5.49451e-4
12.32,220.72,7.179,100.670,-5.54029e-3
12.34,220.95,7.178,100.668,-4.94665e-3
12.36,221.19,7.178,100.668,-0.0105368
12.39,221.42,7.178,100.666,1.10019e-3
12.41,221.65,7.178,100.666,-7.33272e-4
12.43,221.88,7.178,100.666,-3.43721e-3
12.46,222.12,7.178,100.666,-2.19913e-3
12.48,222.35,7.178,100.665,-4.12331e-4
12.50,222.58,7.178,100.666,-1.00727e-3
12.53,222.82,7.178,100.664,6.41118e-4
12.55,223.05,7.178,100.663,-3.06714e-3
12.57,223.28,7.178,100.662,-2.38127e-3
12.60,223.52,7.178,100.661,-2.61124e-3
12.62,223.75,7.178,100.661,-8.84116e-3
12.64,223.98,7.178,100.661,9.16221e-4
12.67,224.22,7.178,100.661,-0.0149334
12.69,224.45,7.178,100.659,-9.30339e-3
12.71,224.68,7.178,100.660,-6.87502e-4
12.74,224.92,7.178,100.660,-2.52130e-3
12.76,225.15,7.178,100.659,-0.0115090
12.78,225.38,7.178,100.660,-6.55553e-3
12.81,225.61,7.178,100.659,-0.0118271
12.83,225.85,7.178,100.658,-0.0115032
12.85,226.08,7.178,100.658,-1.14507e-3
12.88,226.31,7.178,100.658,-3.48119e-3
12.90,226.55,7.178,100.657,-9.75781e-3
12.92,226.78,7.178,100.656,4.03170e-3
12.95,227.01,7.178,100.655,-8.06362e-3
12.97,227.25,7.178,100.655,-5.54320e-3
12.99,227.48,7.177,100.654,2.88726e-3
13.02,227.71,7.177,100.653,-7.79218e-3
13.04,227.95,7.177,100.653,2.70394e-3
13.06,228.18,7.177,100.653,-2.56866e-3
13.09,228.41,7.177,100.652,-4.85930e-3
13.11,228.64,7.177,100.652,-0.0125620
13.13,228.88,7.177,100.651,-0.0101357
13.16,229.11,7.177,100.651,8.57413e-3
13.18,229.34,7.177,100.650,6.42841e-4
13.20,229.58,7.177,100.649,3.71090e-3
13.23,229.81,7.177,100.648,-1.51266e-3
13.25,230.04,7.177,100.647,-3.20710e-3
13.27,230.28,7.177,100.647,-7.46159e-3
13.30,230.51,7.177,100.646,-5.35714e-3
13.32,230.74,7.177,100.645,-3.39045e-3
13.34,230.98,7.177,100.644,-4.40178e-3
13.37,231.21,7.177,100.643,5.87314e-3
13.39,231.44,7.177,100.643,-1.42257e-3
13.41,231.67,7.177,100.642,2.29610e-4
13.44,231.91,7.177,100.642,-0.0117002
13.46,232.14,7.177,100.641,-2.79948e-3
13.48,232.37,7.177,100.641,-1.19296e-3
13.51,232.60,7.176,100.640,-1.28458e-3
13.53,232.84,7.177,100.641,-3.25390e-3
13.55,233.07,7.176,100.640,-5.81659e-3
13.58,233.30,7.176,100.640,-3.15734e-3
13.60,233.54,7.176,100.639,-0.0134950
13.62,233.77,7.176,100.639,-2.69898e-3
13.65,234.00,7.176,100.638,6.82102e-3
13.67,234.24,7.176,100.637,-6.87173e-3
13.69,234.47,7.176,100.636,-2.56768e-3
13.72,234.70,7.176,100.636,-2.06589e-3
13.74,234.94,7.176,100.636,0.0166514
13.76,235.17,7.176,100.636,3.43898e-3
13.79,235.40,7.176,100.636,1.23740e-3
13.81,235.64,7.176,100.635,5.08173e-3
13.83,235.87,7.176,100.634,2.05944e-3
13.86,236.10,7.176,100.634,2.24298e-3
13.88,236.34,7.176,100.632,2.65436e-3
13.90,236.57,7.176,100.632,7.04926e-3
13.93,236.80,7.176,100.632,-6.04741e-3
13.95,237.04,7.176,100.632,-6.50360e-3
13.97,237.27,7.176,100.631,1.96938e-3
14.00,237.50,7.176,100.630,-8.83937e-3
14.02,237.73,7.176,100.629,2.79353e-3
14.04,237.97,7.176,100.630,-2.56413e-3
14.07,238.20,7.176,100.629,-8.88064e-3
14.09,238.43,7.176,100.628,2.47253e-3
14.11,238.67,7.176,100.629,-5.03823e-3
14.14,238.90,7.176,100.628,-0.0134200
14.16,239.13,7.176,100.628,1.19198e-3
14.18,239.37,7.176,100.628,-2.15425e-3
14.21,239.60,7.176,100.629,-3.94416e-3
14.23,239.83,7.176,100.628,-6.32880e-3
14.25,240.07,7.175,100.626,-8.75560e-3
14.28,240.30,7.175,100.627,-4.55689e-5
14.30,240.53,7.175,100.626,5.67761e-3
14.32,240.77,7.175,100.626,-7.82251e-3
14.35,241.00,7.175,100.627,-2.92438e-3
14.37,241.23,7.175,100.626,-7.81536e-3
14.39,241.47,7.175,100.625,-8.37145e-3
14.42,241.70,7.175,100.625,-0.0102928
14.44,241.93,7.175,100.624,2.10623e-3
[...]
17.50,272.47,7.169,100.539,-0.0131448
17.52,272.70,7.169,100.538,-0.0103577
17.54,272.94,7.169,100.537,-7.47296e-3
17.57,273.17,7.169,100.535,1.60335e-3
17.59,273.40,7.169,100.535,-7.88991e-3
17.61,273.64,7.169,100.534,2.47706e-3
17.64,273.87,7.169,100.533,-5.08509e-3
17.66,274.10,7.169,100.532,-3.20773e-3
17.68,274.34,7.169,100.531,-0.0128663
17.71,274.57,7.169,100.531,4.58880e-5
17.73,274.80,7.169,100.530,-0.0130037
17.75,275.04,7.169,100.529,-5.49149e-4
17.78,275.27,7.168,100.528,-6.96340e-3
17.80,275.50,7.168,100.527,8.25436e-4
17.82,275.73,7.168,100.526,1.28348e-3
17.85,275.97,7.168,100.526,-3.07087e-3
17.87,276.20,7.168,100.524,4.62869e-3
17.89,276.43,7.168,100.524,3.52759e-3
17.92,276.67,7.168,100.523,1.92308e-3
17.94,276.90,7.168,100.522,-0.0189501
17.96,277.13,7.168,100.521,9.19436e-5
17.99,277.37,7.168,100.520,-2.01465e-3
18.01,277.60,7.168,100.520,-5.77467e-3
18.03,277.83,7.168,100.520,-0.0191040
18.06,278.07,7.168,100.519,-0.0203484
18.08,278.30,7.168,100.519,2.97758e-3
18.10,278.53,7.168,100.517,-6.41026e-3
18.13,278.77,7.168,100.517,-0.0141407
18.15,279.00,7.168,100.517,-4.39448e-3
18.17,279.23,7.168,100.516,-0.0144153
18.20,279.47,7.168,100.515,-9.56960e-3
18.22,279.70,7.167,100.514,-0.0126497
18.24,279.93,7.167,100.514,-4.17184e-3
18.27,280.17,7.167,100.512,-7.84404e-3
18.29,280.40,7.167,100.511,2.06422e-3
18.31,280.63,7.167,100.510,-2.33945e-3
18.34,280.86,7.167,100.509,-8.98670e-3
18.36,281.10,7.167,100.509,1.42087e-3
18.38,281.33,7.167,100.510,5.31458e-3
18.41,281.56,7.167,100.508,-0.0109493
18.43,281.80,7.167,100.507,-7.69412e-3
18.45,282.03,7.167,100.507,-9.16145e-3
18.48,282.26,7.167,100.506,-6.31868e-3
18.50,282.50,7.167,100.504,-0.0112697
18.52,282.73,7.167,100.504,-0.0114571
18.55,282.96,7.167,100.501,4.58547e-4
18.57,283.20,7.166,100.500,-9.48846e-3
18.59,283.43,7.166,100.499,-7.51463e-3
18.62,283.66,7.166,100.498,-9.66987e-3
18.64,283.89,7.166,100.497,-5.63645e-3
18.66,284.13,7.166,100.495,-0.0164141
18.69,284.36,7.166,100.495,4.25962e-3
18.71,284.59,7.166,100.494,-0.0100778
18.73,284.83,7.166,100.493,-0.0148810
18.76,285.06,7.166,100.492,-4.94846e-3
18.78,285.29,7.166,100.491,-8.28755e-3
18.80,285.53,7.166,100.491,-1.60256e-3
18.83,285.76,7.166,100.490,-0.0143372
18.85,285.99,7.166,100.489,3.70879e-3
18.87,286.23,7.166,100.490,-0.0138804
18.90,286.46,7.166,100.488,-0.0110806
18.92,286.69,7.166,100.487,1.32784e-3
18.94,286.93,7.165,100.486,-0.0106287
18.97,287.16,7.165,100.484,1.78633e-3
18.99,287.39,7.165,100.483,-0.0243132
19.01,287.63,7.165,100.482,-4.76190e-3
19.04,287.86,7.165,100.481,-0.0139194
19.06,288.09,7.165,100.480,-6.91588e-3
19.08,288.33,7.165,100.479,-8.42909e-3
19.11,288.56,7.165,100.478,-5.26557e-3
19.13,288.79,7.165,100.477,-7.28022e-3
19.15,289.02,7.165,100.476,-6.41328e-3
19.18,289.26,7.165,100.474,-2.47372e-3
19.20,289.49,7.165,100.474,3.98721e-3
19.22,289.72,7.165,100.473,2.47380e-3
19.25,289.96,7.164,100.472,-8.66216e-3
19.27,290.19,7.164,100.470,7.14621e-3
19.29,290.42,7.164,100.468,-9.24908e-3
19.32,290.66,7.164,100.468,-9.20561e-3
19.34,290.89,7.164,100.467,-5.31293e-3
19.36,291.12,7.164,100.466,-4.39926e-3
19.39,291.36,7.164,100.465,-0.0131695
19.41,291.59,7.164,100.464,-7.20184e-3
19.43,291.82,7.164,100.463,-6.74312e-3
19.46,292.05,7.164,100.463,1.05409e-3
19.48,292.29,7.164,100.462,-9.02523e-3
19.50,292.52,7.164,100.461,-2.01432e-3
19.53,292.75,7.164,100.459,-0.0110250
19.55,292.99,7.163,100.458,-0.0137649
19.57,293.22,7.163,100.456,-0.0153315
19.60,293.45,7.163,100.454,-6.41026e-3
19.62,293.69,7.163,100.454,-1.37267e-3
19.64,293.92,7.163,100.453,-9.33662e-3
19.67,294.15,7.163,100.451,-1.32784e-3
19.69,294.39,7.163,100.451,-9.58181e-3
19.71,294.62,7.163,100.450,-0.0121560
19.74,294.85,7.163,100.449,1.97207e-3
19.76,295.09,7.163,100.449,3.48294e-3
19.78,295.32,7.163,100.448,-3.20009e-4
19.81,295.55,7.163,100.447,-0.0152473
19.83,295.79,7.163,100.446,-6.77953e-3
19.85,296.02,7.163,100.445,-0.0135655
19.88,296.25,7.162,100.443,-3.89681e-3
19.90,296.49,7.162,100.443,-8.71526e-4
19.92,296.72,7.162,100.441,8.70954e-4
19.95,296.95,7.162,100.440,-0.0143430
19.97,297.18,7.162,100.439,-0.0157509
19.99,297.42,7.162,100.438,-0.0166509
20.02,297.65,7.162,100.436,-0.0264862
20.04,297.89,7.162,100.435,-1.92078e-3
20.06,298.12,7.162,100.435,6.39569e-4
20.09,298.35,7.162,100.434,-5.99517e-3
20.11,298.59,7.162,100.433,-5.44872e-3
20.13,298.82,7.162,100.431,-0.0107239
20.16,299.05,7.162,100.430,-0.0102294
20.18,299.28,7.161,100.430,7.33776e-4
20.20,299.52,7.161,100.430,6.22991e-3
20.23,299.75,7.161,100.430,-6.23436e-3
20.25,299.98,7.161,100.429,6.18373e-3
20.27,300.22,7.161,100.427,-2.70321e-3
20.30,300.45,7.161,100.427,5.04771e-4
20.32,300.68,7.161,100.426,-0.0134684
20.34,300.92,7.161,100.424,-3.20550e-3
20.37,301.15,7.161,100.423,6.22429e-3
20.39,301.38,7.161,100.423,-4.89447e-3
20.41,301.62,7.161,100.423,9.18178e-3
20.44,301.85,7.161,100.422,-7.48470e-3
20.46,302.09,7.161,100.421,5.55556e-3
20.48,302.32,7.161,100.421,-4.78142e-3
20.51,302.55,7.161,100.419,-2.09578e-3
20.53,302.79,7.161,100.418,-8.38935e-3
20.55,303.02,7.161,100.418,-2.14544e-3
20.58,303.26,7.160,100.416,-0.0119647
20.60,303.49,7.160,100.416,-2.33183e-3
20.62,303.72,7.160,100.416,-4.57314e-3
20.65,303.96,7.160,100.413,2.42498e-3
20.67,304.19,7.160,100.414,-1.69414e-3
20.69,304.42,7.160,100.412,-9.15751e-3
20.72,304.66,7.160,100.411,-6.35860e-3
20.74,304.89,7.160,100.409,-3.20512e-4
20.76,305.12,7.160,100.408,2.14808e-3
20.79,305.36,7.160,100.407,-1.14260e-3
20.81,305.59,7.160,100.406,-4.11335e-3
20.83,305.83,7.160,100.406,-2.24252e-3
20.86,306.06,7.160,100.405,-0.0115560
20.88,306.29,7.160,100.403,-6.93576e-3
20.90,306.52,7.160,100.403,-2.38738e-3
20.93,306.76,7.159,100.402,-9.26850e-3
20.95,306.99,7.159,100.401,-0.0162637
20.97,307.22,7.159,100.400,-5.57871e-3
21.00,307.46,7.159,100.398,-0.0172670
21.02,307.69,7.159,100.396,4.15519e-3
21.04,307.92,7.159,100.395,6.26143e-3
21.07,308.16,7.159,100.394,-5.95271e-4
21.09,308.39,7.159,100.391,-6.41026e-4
21.11,308.62,7.159,100.391,-3.66658e-3
21.14,308.86,7.159,100.391,-4.12534e-3
21.16,309.09,7.159,100.389,-3.94016e-3
21.18,309.32,7.158,100.387,-4.58379e-4
21.21,309.56,7.158,100.386,-7.00850e-3
21.23,309.79,7.158,100.385,3.61884e-3
21.25,310.02,7.158,100.383,-0.0164835
21.28,310.26,7.158,100.381,-5.76923e-3
21.30,310.49,7.158,100.380,-0.0200196
21.32,310.72,7.158,100.377,-0.0159485
21.35,310.96,7.158,100.376,7.79817e-4
21.37,311.19,7.158,100.375,6.97248e-3
21.39,311.42,7.157,100.373,-3.20833e-3
21.42,311.65,7.157,100.372,1.97105e-3
21.44,311.89,7.157,100.370,-4.94601e-3
21.46,312.12,7.157,100.368,-0.0108112
21.49,312.35,7.157,100.367,-0.0130104
21.51,312.59,7.157,100.365,-2.74725e-3
21.53,312.82,7.157,100.364,-6.95971e-3
21.56,313.05,7.157,100.363,-0.0165378
21.58,313.29,7.157,100.363,-0.0170558
21.60,313.52,7.157,100.362,-1.14800e-3
21.63,313.75,7.156,100.360,-0.0106933
21.65,313.99,7.156,100.357,-0.0159174
21.67,314.22,7.156,100.356,-0.0117261
21.70,314.45,7.156,100.354,-9.61940e-4
21.72,314.69,7.156,100.353,-7.86762e-3
21.74,314.92,7.156,100.352,-0.0204023
21.77,315.15,7.156,100.350,-8.41827e-3
21.79,315.39,7.156,100.347,4.71612e-3
21.81,315.62,7.155,100.346,-3.66300e-4
21.84,315.85,7.155,100.345,-0.0158541
21.86,316.09,7.155,100.342,-6.78146e-3
21.88,316.32,7.155,100.341,-1.37396e-3
21.91,316.55,7.155,100.340,-7.97390e-3
21.93,316.78,7.155,100.338,-9.98721e-3
21.95,317.02,7.155,100.335,-0.0134233
21.98,317.25,7.155,100.333,-0.0111365
22.00,317.48,7.154,100.331,-0.0112705
22.02,317.72,7.154,100.329,-1.51099e-3
22.05,317.95,7.154,100.328,-0.0178014
22.07,318.18,7.154,100.325,-6.36447e-3
22.09,318.42,7.154,100.323,-0.0132293
22.12,318.65,7.154,100.322,-0.0176186
22.14,318.88,7.154,100.319,-8.60603e-3
22.16,319.12,7.153,100.317,-0.0142399
22.19,319.35,7.153,100.316,-4.90086e-3
22.21,319.58,7.153,100.313,-0.0152565
22.23,319.82,7.153,100.312,-9.39834e-3
22.26,320.05,7.153,100.309,-8.89340e-3
22.28,320.28,7.153,100.307,-0.0137495
22.30,320.52,7.153,100.306,-0.0132901
22.33,320.75,7.152,100.302,-9.71602e-3
22.35,320.98,7.152,100.299,-0.0161720
22.37,321.21,7.152,100.297,-3.71119e-3
22.40,321.45,7.152,100.294,-0.0114970
22.42,321.68,7.152,100.292,-8.24406e-3
22.44,321.91,7.151,100.288,-7.60073e-3
22.47,322.15,7.151,100.286,1.09890e-3
22.49,322.38,7.151,100.284,2.88406e-3
22.51,322.61,7.151,100.283,-8.92460e-3
22.54,322.85,7.151,100.281,-0.0131316
22.56,323.08,7.151,100.279,0.0101209
22.58,323.31,7.150,100.275,-3.11439e-3
22.61,323.55,7.150,100.272,-0.0188429
22.63,323.78,7.150,100.269,-0.0111865
22.65,324.01,7.150,100.266,-3.76051e-3
22.68,324.25,7.150,100.263,-0.0290557
22.70,324.48,7.149,100.260,-3.57131e-3
22.72,324.71,7.149,100.256,-2.65464e-3
22.75,324.95,7.149,100.253,-0.0105381
22.77,325.18,7.149,100.251,-0.0174403
22.79,325.41,7.149,100.249,-0.0114820
22.82,325.65,7.148,100.248,-6.82033e-3
22.84,325.88,7.148,100.245,-0.0153388
22.86,326.11,7.148,100.243,-0.0145280
22.89,326.35,7.148,100.238,-0.0173394
22.91,326.58,7.148,100.235,-0.0110973
22.93,326.81,7.147,100.232,-0.0122826
22.96,327.04,7.147,100.230,-0.0101691
22.98,327.28,7.147,100.227,-0.0170330
23.00,327.51,7.147,100.224,-0.0175724
23.03,327.74,7.147,100.220,-0.0101648
23.05,327.98,7.146,100.218,-0.0143364
23.07,328.21,7.146,100.216,9.15918e-5
23.10,328.44,7.146,100.213,-0.0105449
23.12,328.68,7.146,100.210,-0.0229635
23.14,328.91,7.146,100.207,-0.0106784
23.17,329.14,7.145,100.204,-0.0118195
23.19,329.38,7.145,100.200,-0.0167125
23.21,329.61,7.145,100.196,-0.0242674
23.24,329.84,7.144,100.191,-0.0182234
23.26,330.08,7.144,100.188,-0.0138736
23.28,330.31,7.144,100.184,-0.0155721
23.31,330.54,7.144,100.181,-0.0172161
23.33,330.78,7.143,100.177,-0.0163383
23.35,331.01,7.143,100.173,-7.41284e-3
23.38,331.24,7.143,100.169,-0.0269790
23.40,331.48,7.142,100.163,-0.0244826
23.42,331.71,7.142,100.159,-0.0194139
23.45,331.94,7.142,100.154,-0.0234057
23.47,332.18,7.142,100.151,-8.47879e-3
23.49,332.41,7.141,100.148,-0.0247478
23.52,332.64,7.141,100.144,-0.0178274
23.54,332.88,7.141,100.140,-0.0240385
23.56,333.11,7.140,100.135,-0.0209440
23.59,333.34,7.140,100.131,-0.0127928
23.61,333.57,7.140,100.127,-0.0148540
23.63,333.81,7.139,100.121,-0.0181098
23.66,334.04,7.139,100.118,-0.0265350
23.68,334.27,7.139,100.112,-0.0173121
23.70,334.51,7.138,100.106,-0.0109432
23.73,334.74,7.138,100.102,-0.0166053
23.75,334.97,7.138,100.097,-0.0238246
23.77,335.21,7.137,100.090,-0.0212130
23.80,335.44,7.137,100.086,-0.0164625
23.82,335.67,7.137,100.081,-0.0238793
23.84,335.91,7.136,100.075,-0.0280131
23.87,336.14,7.136,100.069,-0.0142983
23.89,336.37,7.135,100.064,-0.0153984
23.91,336.61,7.135,100.060,-0.0116327
23.94,336.84,7.135,100.054,-0.0385531
23.96,337.07,7.134,100.046,-0.0162183
23.98,337.31,7.134,100.040,-0.0206502
24.01,337.54,7.133,100.035,-0.0249542
24.03,337.77,7.133,100.030,-8.51648e-3
24.05,338.01,7.132,100.023,-0.0256177
24.08,338.24,7.132,100.017,-0.0203568
24.10,338.47,7.132,100.012,-0.0301114
24.12,338.71,7.131,100.006,-0.0320971
24.15,338.94,7.131,99.999,-0.0230157
24.17,339.17,7.130,99.993,-0.0264984
24.19,339.41,7.130,99.985,-0.0333945
24.22,339.64,7.129,99.979,-0.0289357
24.24,339.87,7.129,99.970,-0.0290909
24.26,340.11,7.128,99.964,-0.0254258
24.29,340.34,7.128,99.957,-0.0236142
24.31,340.57,7.127,99.949,-0.0417778
24.33,340.81,7.127,99.943,-0.0300534
24.36,341.04,7.126,99.936,-0.0253809
24.38,341.27,7.126,99.927,-0.0735090
24.40,341.50,7.125,99.919,-0.0421723
24.43,341.74,7.124,99.910,-0.0309174
24.45,341.97,7.124,99.901,-0.0491941
24.47,342.20,7.123,99.893,-0.0333451
24.50,342.44,7.122,99.883,-0.0234430
24.52,342.67,7.122,99.875,-0.0390110
24.54,342.90,7.121,99.865,-0.0347201
24.57,343.14,7.120,99.855,-0.0520421
24.59,343.37,7.120,99.846,-0.0269689
24.61,343.60,7.119,99.836,-0.0430181
24.64,343.83,7.118,99.825,-0.0525641
24.66,344.07,7.118,99.816,-0.0413543
24.68,344.30,7.117,99.806,-0.0469644
24.71,344.54,7.116,99.795,-0.0479243
24.73,344.77,7.115,99.785,-0.0586837
24.75,345.00,7.115,99.773,-0.0494507
24.78,345.24,7.114,99.761,-0.0521062
24.80,345.47,7.113,99.749,-0.0554786
24.82,345.70,7.112,99.737,-0.0614475
24.85,345.94,7.111,99.724,-0.0571746
24.87,346.17,7.110,99.710,-0.0617443
24.89,346.40,7.109,99.697,-0.0459288
24.92,346.64,7.108,99.684,-0.0689592
24.94,346.87,7.107,99.668,-0.0631976
24.96,347.10,7.106,99.654,-0.0577110
24.99,347.34,7.105,99.638,-0.0716779
25.01,347.57,7.104,99.622,-0.0657051
25.03,347.80,7.103,99.607,-0.0641484
25.06,348.04,7.102,99.591,-0.0630377
25.08,348.27,7.101,99.575,-0.0602106
25.10,348.50,7.099,99.559,-0.0718275
25.13,348.74,7.098,99.541,-0.0716050
25.15,348.97,7.097,99.521,-0.0789187
25.17,349.20,7.095,99.504,-0.0607463
25.20,349.43,7.094,99.480,-0.0709249
25.22,349.67,7.092,99.461,-0.0825229
25.24,349.90,7.091,99.441,-0.0811311
25.27,350.13,7.089,99.421,-0.0851225
25.29,350.37,7.088,99.400,-0.0867114
25.31,350.60,7.086,99.374,-0.0666724
25.34,350.83,7.084,99.349,-0.0830729
25.36,351.07,7.083,99.329,-0.0891941
25.38,351.30,7.081,99.305,-0.104167
25.41,351.53,7.079,99.273,-0.0663462
25.43,351.76,7.077,99.249,-0.0922511
25.45,352.00,7.076,99.227,-0.109689
25.48,352.23,7.074,99.202,-0.118883
25.50,352.46,7.072,99.173,-0.150413
25.52,352.70,7.070,99.149,-0.130826
25.55,352.93,7.068,99.118,-0.128921
25.57,353.16,7.066,99.091,-0.105920
25.59,353.40,7.064,99.067,-0.121749
25.62,353.63,7.062,99.038,-0.122346
25.64,353.86,7.060,99.009,-0.137257
25.66,354.10,7.058,98.978,-0.214518
25.69,354.33,7.055,98.943,-0.114559
25.71,354.56,7.053,98.915,-0.110413
25.73,354.79,7.050,98.872,-0.107929
25.76,355.03,7.048,98.835,-0.142756
25.78,355.26,7.046,98.805,-0.112809
25.80,355.49,7.042,98.758,-0.393122
25.83,355.73,7.040,98.724,-0.139835
25.85,355.96,7.037,98.688,-0.155721
25.87,356.19,7.035,98.656,-0.154670
25.90,356.43,7.032,98.608,-0.167007
25.92,356.66,7.029,98.572,-0.161638
25.94,356.89,7.027,98.543,-0.237883
25.97,357.13,7.024,98.500,-0.130958
25.99,357.36,7.021,98.454,-0.200766
26.01,357.59,7.018,98.415,-0.276433
26.04,357.83,7.014,98.366,-0.166865
26.06,358.06,7.011,98.327,-0.177057
26.08,358.29,7.008,98.282,-0.286542
26.11,358.53,7.005,98.243,-0.116513
26.13,358.76,7.001,98.183,-0.175572
26.15,358.99,6.999,98.148,-0.108412
26.18,359.23,6.996,98.110,-0.128684
26.20,359.46,6.993,98.061,-0.191099
26.22,359.70,6.989,98.009,-0.187488
26.25,359.93,6.986,97.962,-0.257587
26.27,360.16,6.984,97.935,-0.143650
26.29,360.40,6.979,97.875,-0.242811
26.32,360.63,6.976,97.836,-0.149954
26.34,360.86,6.972,97.780,-0.185502
26.36,361.09,6.969,97.737,-0.106815
26.39,361.33,6.964,97.654,-0.385380
26.41,361.56,6.960,97.609,-0.172718
26.43,361.79,6.957,97.557,-0.213543
26.46,362.03,6.953,97.504,-0.115476
26.48,362.26,6.950,97.460,-0.312996
26.50,362.49,6.945,97.395,-0.264030
26.53,362.73,6.943,97.359,-0.193319
26.55,362.96,6.939,97.310,-0.133035
26.57,363.19,6.935,97.253,-0.157738
26.60,363.43,6.931,97.194,-0.482509
26.62,363.66,6.926,97.129,-0.365977
26.64,363.89,6.921,97.057,-0.216131
26.67,364.13,6.918,97.013,-0.199432
26.69,364.36,6.915,96.969,-0.281948
26.71,364.59,6.910,96.900,-0.471855
26.74,364.83,6.905,96.838,-0.292620
26.76,365.06,6.901,96.774,-0.277589
26.78,365.29,6.896,96.704,-0.198581
26.81,365.53,6.892,96.653,-0.415339
26.83,365.76,6.888,96.592,-0.195147
26.85,365.99,6.883,96.531,-0.262683
26.88,366.23,6.880,96.486,-0.304222
26.90,366.46,6.874,96.395,-0.519701
26.92,366.69,6.869,96.334,-0.316169
26.95,366.92,6.865,96.272,-0.587301
26.97,367.16,6.860,96.198,-0.433354
26.99,367.39,6.855,96.133,-0.257330
27.02,367.62,6.850,96.069,-0.322069
27.04,367.86,6.846,96.001,-0.264668
27.06,368.09,6.840,95.926,-0.276890
27.09,368.32,6.836,95.872,-0.400972
27.11,368.56,6.831,95.796,-0.315391
27.13,368.79,6.827,95.735,-0.342903
27.16,369.02,6.823,95.688,-0.0949446
27.18,369.26,6.817,95.594,-0.220020
27.20,369.49,6.812,95.528,-0.252731
27.23,369.72,6.806,95.445,-0.484661
27.25,369.96,6.802,95.386,-0.264870
27.27,370.19,6.798,95.327,-0.312440
27.30,370.42,6.792,95.254,-0.444325
27.32,370.66,6.786,95.169,-0.276021
27.34,370.89,6.780,95.087,-0.377615
27.37,371.12,6.776,95.025,-0.383761
27.39,371.35,6.769,94.929,-0.278807
27.41,371.59,6.765,94.874,-0.347431
27.44,371.82,6.760,94.801,-0.248670
27.46,372.05,6.753,94.703,-0.383708
27.48,372.29,6.748,94.638,-0.376742
27.51,372.52,6.744,94.575,-0.211700
27.53,372.75,6.738,94.488,-0.183184
27.55,372.99,6.733,94.423,-0.281208
27.58,373.22,6.727,94.338,-0.343508
27.60,373.45,6.721,94.249,-0.296690
27.62,373.69,6.715,94.167,-0.330754
27.65,373.92,6.710,94.103,-0.253846
27.67,374.15,6.705,94.029,-0.283745
27.69,374.39,6.700,93.956,-0.414759
27.72,374.62,6.693,93.862,-0.541042
27.74,374.85,6.685,93.745,-0.858890
27.76,375.09,6.680,93.682,-0.204991
27.79,375.32,6.675,93.605,-0.541725
27.81,375.55,6.669,93.518,-0.195387
27.83,375.79,6.663,93.437,-0.390985
27.86,376.02,6.657,93.358,-0.492865
27.88,376.25,6.650,93.258,-0.593937
27.90,376.48,6.644,93.177,-0.278221
27.93,376.72,6.639,93.100,-0.212294
27.95,376.95,6.633,93.014,-0.427259
27.97,377.18,6.626,92.918,-0.467615
28.00,377.42,6.620,92.843,-0.251073
28.02,377.65,6.613,92.738,-0.390576
28.04,377.88,6.607,92.660,-0.620445
28.07,378.11,6.600,92.552,-0.335780
28.09,378.35,6.594,92.469,-0.217314
28.11,378.58,6.587,92.373,-0.297965
28.14,378.81,6.582,92.297,-0.326311
28.16,379.05,6.573,92.183,-0.463401
28.18,379.28,6.568,92.103,-0.361447
28.21,379.51,6.561,92.004,-0.270925
28.23,379.75,6.554,91.907,-0.395862
28.25,379.98,6.548,91.827,-0.145046
28.28,380.21,6.541,91.730,-0.491560
28.30,380.44,6.533,91.622,-0.412668
28.32,380.68,6.527,91.529,-0.325120
28.35,380.91,6.519,91.424,-0.135792
28.37,381.14,6.512,91.317,-0.230895
28.39,381.38,6.506,91.237,-0.437875
28.42,381.61,6.497,91.118,-0.512300
28.44,381.84,6.490,91.021,-0.337527
28.46,382.08,6.483,90.913,-0.242079
28.49,382.31,6.478,90.839,-0.413543
28.51,382.54,6.469,90.722,-0.468358
28.53,382.78,6.463,90.628,-0.396657
28.56,383.01,6.455,90.522,-0.356034
28.58,383.24,6.449,90.442,-0.312683
28.60,383.48,6.440,90.313,-0.598000
28.63,383.71,6.434,90.227,-0.400870
28.65,383.94,6.426,90.112,-0.680683
28.67,384.18,6.419,90.024,-0.619709
28.70,384.41,6.411,89.900,-0.611676
28.72,384.64,6.402,89.783,-0.410211
28.74,384.88,6.394,89.674,-0.431118
28.77,385.11,6.387,89.567,-0.780133
28.79,385.34,6.378,89.442,-0.355378
28.81,385.58,6.372,89.364,-0.456865
28.84,385.81,6.363,89.236,-0.376887
28.86,386.04,6.356,89.136,-0.557967
28.88,386.28,6.347,89.015,-0.395681
28.91,386.51,6.340,88.908,-0.421236
28.93,386.74,6.331,88.791,-0.531200
28.95,386.98,6.325,88.697,-0.426972
28.98,387.21,6.315,88.563,-0.314927
29.00,387.44,6.309,88.479,-0.540781
29.02,387.68,6.301,88.370,-0.717176
29.05,387.91,6.290,88.213,-0.421473
29.07,388.14,6.284,88.123,-0.253827
29.09,388.38,6.276,88.018,-0.452839
29.12,388.61,6.267,87.886,-0.609661
29.14,388.84,6.258,87.763,-1.07541
29.16,389.08,6.249,87.639,-0.435322
29.19,389.31,6.241,87.521,-0.309741
29.21,389.54,6.233,87.414,-0.540475
29.23,389.78,6.224,87.285,-0.475823
29.26,390.01,6.216,87.166,-0.448508
29.28,390.24,6.208,87.055,-0.193810
29.30,390.48,6.199,86.939,-0.705610
29.33,390.71,6.189,86.792,-0.656510
29.35,390.94,6.181,86.680,-0.345566
29.37,391.18,6.171,86.547,-0.633842
29.40,391.41,6.163,86.432,-0.369613
29.42,391.64,6.155,86.317,-0.676868
29.44,391.88,6.145,86.180,-0.585348
29.47,392.11,6.136,86.052,-0.610095
29.49,392.34,6.127,85.924,-0.375687
29.51,392.58,6.117,85.779,-0.991124
29.54,392.81,6.109,85.677,-0.379853
29.56,393.04,6.099,85.533,-0.512184
29.58,393.28,6.089,85.391,-0.748655
29.61,393.51,6.082,85.291,-0.411035
29.63,393.74,6.072,85.148,-0.552335
29.65,393.98,6.060,84.989,-0.465353
29.68,394.21,6.053,84.885,-0.677603
29.70,394.44,6.043,84.741,-0.515799
29.72,394.67,6.034,84.612,-0.577220
29.75,394.91,6.024,84.474,-0.466283
29.77,395.14,6.015,84.358,-0.626327
29.79,395.37,6.004,84.198,-0.719796
29.82,395.61,5.995,84.071,-0.702661
29.84,395.84,5.984,83.924,-1.42410
29.86,396.07,5.975,83.794,-0.334588
29.89,396.30,5.967,83.675,-0.570488
29.91,396.54,5.954,83.498,-0.665586
29.93,396.77,5.946,83.382,-0.471429
29.95,396.95,5.939,83.280,-0.700056