File: instrument_data/TGA/Co(phen)2(SCN)2 RT-6001172022.csv
Filename,Co(phen)2(SCN)2 RT-6001172022
Instrument name,5500-0566 (192.168.10.4)
Operator,Adam K
rundate,11/7/2022
Sample name,Co(phen)2(SCN)2 RT-600
proceduresegments,Equilibrate 110.00 °C; Isothermal 1.0 min; Ramp 20.00 °C/min to 600.00 °C
[File Parameters]
Run date,11/7/2022 3:24:49 PM
Trios version,5.3.0.48151
Original File Name,C:\ProgramData\TA Instruments\TRIOS\Data\CH302_B3_22_AK\Co(phen)2(SCN)2 RT-6001172022.tri
Current File Name,C:/ProgramData/TA Instruments/TRIOS/Data/CH302_B3_22_AK/Co(phen)2(SCN)2 RT-6001172022.tri
User at run start,CH-CBWNNF3-0721\ChemLocal
[Procedure]
Procedure Name,
Sample Name,Co(phen)2(SCN)2 RT-600
Pan Number,1
Sample Mass,3.496 mg
Pan Type,Aluminum
Comments,
Project Name,Spin Crossover
Operator,Adam K
Test,Custom
Skip Weight Stabilization,False
Sample mass pre-weigh,Not Available
Stop on Gas Flow Error,No
[Signal List]
Signal #1,Time (min)
Signal #2,Temperature (°C)
Signal #3,Weight (mg)
Signal #4,Temperature Difference (°C)
Signal #5,Sample Purge (mL/min)
Signal #6,Balance Purge (mL/min)
Signal #7,Set Point Temperature (°C)
Signal #8,Power Delivered (W)
Signal #9,Ramp Rate (°C/min)
[Configuration]
Company Name,localcc
Instrument Name,5500-0566
Instrument Type,TGA5500
Serial Number,5500-0566
IP,192.168.10.4
Location of Instrument,Olin Hall Rm 364
DisplayType,TianmaV2
Sample Interval ,0.1 s/pt
Gas 1,Nitrogen
Gas 2,Air
Selected Gas Channel,1
MTGA HiRes Licensed,Yes
[Versions]
Common IDD Version,1
Cortex Version,VER 2.1.2.60
Driver,5.0.0.6
GDM Version,1.2.1.2
TouchscreenVersion,1.0.3.1795
PCU Version,1.2.0.15
Transducer Version,1.1.0.32
[Experiment Logs]
Experiment Log Entry # 1,Equilibrate Segment 110 (C) Started
Experiment Log Entry # 3,Isothermal Segment 1 min started
Experiment Log Entry # 5,Ramp Segment 20 C/min to 600 C Started
[Method Log]
Method Log Entry # 1,Equilibrate 110 °C
Method Log Entry # 2,Isothermal 1 minutes
Method Log Entry # 3,(Ramp 1974) Ramp 20 °C/minute to 600 °C
[Weight Calibration]
Date Applied,7/20/2022 10:21:44 AM
Empty Pan Number,23
Empty Pan Weight,341.358 mg
Low Reference Weight Pan Number,24
Low Reference Weight,442.546 mg
High Reference Weight Pan Number,25
High Reference Weight,"1,243.774 mg"
Low Gain Meter Reading,9.9772E-006 mg/count
High Gain Meter Reading,7.9459E-005 mg/count
Low Meter Offset,31.8759 mg
High Meter Offset,613.7978 mg
[Curie Calibration]
Date Applied,8/11/2021 12:40:46 PM
Description,From 256.990 °C to 456.990 °C at 20.000°C/min
Gas Type,Nitrogen
Pan Type,Platinum (100 uL)
Source Files 1,C:\ProgramData\TA Instruments\TRIOS\Data\Nickel Calibration.tri
Source Files 2,C:\ProgramData\TA Instruments\TRIOS\Data\Alumel Calibration.tri
Measured 1,158.9083
Known 1,154.16
Measured 2,358.1255
Known 2,356.99
[step]
Isothermal 1.0 min
Time,Temperature,Weight,Weight
min,°C,mg,%
0.00,110.15,3.447,98.603
0.00,110.15,3.447,98.603
0.00,110.15,3.447,98.603
0.01,110.15,3.447,98.602
0.01,110.16,3.447,98.602
0.01,110.16,3.447,98.602
0.01,110.16,3.447,98.602
0.01,110.16,3.447,98.602
0.01,110.16,3.447,98.601
0.01,110.16,3.447,98.601
0.02,110.16,3.447,98.601
0.02,110.16,3.447,98.601
0.02,110.17,3.447,98.600
0.02,110.17,3.447,98.600
0.02,110.17,3.447,98.600
0.03,110.17,3.447,98.600
0.03,110.17,3.447,98.600
0.03,110.17,3.447,98.600
0.03,110.17,3.447,98.599
0.03,110.17,3.447,98.599
0.03,110.18,3.447,98.598
0.03,110.18,3.447,98.598
0.04,110.18,3.447,98.598
0.04,110.18,3.447,98.597
0.04,110.18,3.447,98.597
0.04,110.18,3.447,98.597
0.04,110.18,3.447,98.597
0.05,110.18,3.447,98.597
0.05,110.18,3.447,98.596
0.05,110.19,3.447,98.596
0.05,110.19,3.447,98.596
0.05,110.19,3.447,98.595
0.05,110.19,3.447,98.595
0.05,110.19,3.447,98.595
0.06,110.19,3.447,98.595
0.06,110.19,3.447,98.595
0.06,110.19,3.447,98.595
0.06,110.20,3.447,98.595
0.06,110.20,3.447,98.595
0.07,110.20,3.447,98.594
0.07,110.20,3.447,98.594
0.07,110.20,3.447,98.594
0.07,110.20,3.447,98.594
0.07,110.20,3.447,98.594
0.07,110.20,3.447,98.594
0.08,110.20,3.447,98.593
0.08,110.21,3.447,98.593
0.08,110.21,3.447,98.593
0.08,110.21,3.447,98.593
0.08,110.21,3.447,98.593
0.08,110.21,3.447,98.593
0.08,110.21,3.447,98.592
0.09,110.21,3.447,98.592
0.09,110.21,3.447,98.592
0.09,110.21,3.447,98.591
0.09,110.22,3.447,98.591
0.09,110.22,3.447,98.591
0.09,110.22,3.447,98.591
0.10,110.22,3.447,98.591
0.10,110.22,3.447,98.590
0.10,110.22,3.447,98.590
0.10,110.22,3.447,98.590
0.10,110.22,3.447,98.590
0.11,110.22,3.447,98.590
0.11,110.23,3.447,98.589
0.11,110.23,3.447,98.589
0.11,110.23,3.447,98.589
0.11,110.23,3.447,98.588
0.11,110.23,3.447,98.588
0.12,110.23,3.447,98.588
0.12,110.23,3.447,98.587
0.12,110.23,3.447,98.587
0.12,110.23,3.447,98.586
0.12,110.23,3.447,98.586
0.12,110.24,3.447,98.586
0.13,110.24,3.447,98.586
0.13,110.24,3.447,98.586
0.13,110.24,3.447,98.586
0.13,110.24,3.447,98.586
0.13,110.24,3.446,98.586
0.13,110.24,3.446,98.586
0.14,110.24,3.446,98.585
0.14,110.24,3.446,98.585
0.14,110.24,3.446,98.585
0.14,110.25,3.446,98.585
0.14,110.25,3.446,98.585
0.14,110.25,3.446,98.585
0.14,110.25,3.446,98.585
0.15,110.25,3.446,98.584
0.15,110.25,3.446,98.584
0.15,110.25,3.446,98.583
0.15,110.25,3.446,98.583
0.15,110.25,3.446,98.583
0.16,110.25,3.446,98.583
0.16,110.25,3.446,98.583
0.16,110.26,3.446,98.583
0.16,110.26,3.446,98.583
0.16,110.26,3.446,98.583
0.16,110.26,3.446,98.583
0.16,110.26,3.446,98.582
0.17,110.26,3.446,98.582
0.17,110.26,3.446,98.582
0.17,110.26,3.446,98.581
0.17,110.26,3.446,98.581
0.17,110.26,3.446,98.581
0.18,110.26,3.446,98.580
0.18,110.27,3.446,98.581
0.18,110.27,3.446,98.581
0.18,110.27,3.446,98.581
0.18,110.27,3.446,98.581
0.18,110.27,3.446,98.581
0.19,110.27,3.446,98.581
0.19,110.27,3.446,98.581
0.19,110.27,3.446,98.580
0.19,110.27,3.446,98.580
0.19,110.27,3.446,98.580
0.19,110.27,3.446,98.580
0.19,110.28,3.446,98.580
0.20,110.28,3.446,98.580
0.20,110.28,3.446,98.579
0.20,110.28,3.446,98.579
0.20,110.28,3.446,98.579
0.20,110.28,3.446,98.579
0.21,110.28,3.446,98.579
0.21,110.28,3.446,98.579
0.21,110.28,3.446,98.579
0.21,110.28,3.446,98.579
0.21,110.28,3.446,98.579
0.21,110.28,3.446,98.578
0.21,110.29,3.446,98.579
0.22,110.29,3.446,98.579
0.22,110.29,3.446,98.579
0.22,110.29,3.446,98.578
0.22,110.29,3.446,98.578
0.22,110.29,3.446,98.578
0.23,110.29,3.446,98.578
0.23,110.29,3.446,98.578
0.23,110.29,3.446,98.577
0.23,110.29,3.446,98.577
0.23,110.29,3.446,98.577
0.23,110.29,3.446,98.577
0.24,110.30,3.446,98.576
0.24,110.30,3.446,98.576
0.24,110.30,3.446,98.576
0.24,110.30,3.446,98.576
0.24,110.30,3.446,98.576
0.24,110.30,3.446,98.575
0.24,110.30,3.446,98.575
0.25,110.30,3.446,98.575
0.25,110.30,3.446,98.575
0.25,110.30,3.446,98.575
0.25,110.30,3.446,98.575
0.25,110.30,3.446,98.575
0.26,110.30,3.446,98.575
0.26,110.30,3.446,98.575
0.26,110.31,3.446,98.575
0.26,110.31,3.446,98.575
0.26,110.31,3.446,98.575
0.26,110.31,3.446,98.575
0.26,110.31,3.446,98.575
0.27,110.31,3.446,98.574
0.27,110.31,3.446,98.574
0.27,110.31,3.446,98.574
0.27,110.31,3.446,98.573
0.27,110.31,3.446,98.573
0.28,110.31,3.446,98.573
0.28,110.31,3.446,98.573
0.28,110.31,3.446,98.573
0.28,110.31,3.446,98.573
0.28,110.32,3.446,98.572
0.28,110.32,3.446,98.572
0.29,110.32,3.446,98.572
0.29,110.32,3.446,98.571
0.29,110.32,3.446,98.571
0.29,110.32,3.446,98.571
0.29,110.32,3.446,98.571
0.29,110.32,3.446,98.571
0.30,110.32,3.446,98.571
0.30,110.32,3.446,98.571
0.30,110.32,3.446,98.571
0.30,110.32,3.446,98.571
0.30,110.32,3.446,98.571
0.30,110.32,3.446,98.571
0.30,110.33,3.446,98.571
0.31,110.33,3.446,98.571
0.31,110.33,3.446,98.570
0.31,110.33,3.446,98.570
0.31,110.33,3.446,98.570
0.31,110.33,3.446,98.570
0.31,110.33,3.446,98.569
0.32,110.33,3.446,98.569
0.32,110.33,3.446,98.569
0.32,110.33,3.446,98.569
0.32,110.33,3.446,98.568
0.32,110.33,3.446,98.568
0.33,110.33,3.446,98.568
0.33,110.33,3.446,98.568
0.33,110.33,3.446,98.568
0.33,110.33,3.446,98.568
0.33,110.34,3.446,98.568
0.33,110.34,3.446,98.568
0.34,110.34,3.446,98.568
0.34,110.34,3.446,98.568
0.34,110.34,3.446,98.568
0.34,110.34,3.446,98.568
0.34,110.34,3.446,98.568
0.34,110.34,3.446,98.567
0.35,110.34,3.446,98.567
0.35,110.34,3.446,98.567
0.35,110.34,3.446,98.567
0.35,110.34,3.446,98.567
0.35,110.34,3.446,98.566
0.35,110.34,3.446,98.566
0.35,110.34,3.446,98.566
0.36,110.34,3.446,98.566
0.36,110.34,3.446,98.566
0.36,110.35,3.446,98.566
0.36,110.35,3.446,98.565
0.36,110.35,3.446,98.565
0.36,110.35,3.446,98.564
0.37,110.35,3.446,98.564
0.37,110.35,3.446,98.563
0.37,110.35,3.446,98.563
0.37,110.35,3.446,98.563
0.37,110.35,3.446,98.563
0.38,110.35,3.446,98.563
0.38,110.35,3.446,98.563
0.38,110.35,3.446,98.564
0.38,110.35,3.446,98.564
0.38,110.35,3.446,98.564
0.38,110.35,3.446,98.564
0.39,110.35,3.446,98.564
0.39,110.35,3.446,98.564
0.39,110.35,3.446,98.564
0.39,110.35,3.446,98.563
0.39,110.36,3.446,98.563
0.39,110.36,3.446,98.563
0.40,110.36,3.446,98.562
0.40,110.36,3.446,98.562
0.40,110.36,3.446,98.561
0.40,110.36,3.446,98.561
0.40,110.36,3.446,98.560
0.40,110.36,3.446,98.560
0.40,110.36,3.446,98.561
0.41,110.36,3.446,98.561
0.41,110.36,3.446,98.561
0.41,110.36,3.446,98.560
0.41,110.36,3.446,98.560
0.41,110.36,3.446,98.560
0.41,110.36,3.446,98.560
0.42,110.36,3.446,98.560
0.42,110.36,3.446,98.560
0.42,110.36,3.446,98.560
0.42,110.36,3.446,98.559
0.42,110.36,3.446,98.559
0.43,110.36,3.446,98.559
0.43,110.36,3.446,98.559
0.43,110.37,3.446,98.559
0.43,110.37,3.446,98.559
0.43,110.37,3.446,98.559
0.43,110.37,3.446,98.559
0.44,110.37,3.446,98.559
0.44,110.37,3.446,98.558
0.44,110.37,3.446,98.558
0.44,110.37,3.446,98.558
0.44,110.37,3.446,98.558
0.44,110.37,3.446,98.558
0.45,110.37,3.445,98.557
0.45,110.37,3.445,98.557
0.45,110.37,3.445,98.557
0.45,110.37,3.445,98.557
0.45,110.37,3.445,98.557
0.45,110.37,3.445,98.557
0.45,110.37,3.445,98.557
0.46,110.37,3.445,98.557
0.46,110.37,3.445,98.557
0.46,110.37,3.445,98.557
0.46,110.37,3.445,98.557
0.46,110.37,3.445,98.557
0.46,110.37,3.445,98.557
0.47,110.37,3.445,98.557
0.47,110.37,3.445,98.556
0.47,110.38,3.445,98.556
0.47,110.38,3.445,98.556
0.47,110.38,3.445,98.556
0.48,110.38,3.445,98.556
0.48,110.38,3.445,98.556
0.48,110.38,3.445,98.556
0.48,110.38,3.445,98.555
0.48,110.38,3.445,98.555
0.48,110.38,3.445,98.555
0.49,110.38,3.445,98.555
0.49,110.38,3.445,98.555
0.49,110.38,3.445,98.555
0.49,110.38,3.445,98.555
0.49,110.38,3.445,98.554
0.49,110.38,3.445,98.554
0.50,110.38,3.445,98.554
0.50,110.38,3.445,98.554
0.50,110.38,3.445,98.554
0.50,110.38,3.445,98.554
0.50,110.38,3.445,98.553
0.50,110.38,3.445,98.553
0.50,110.38,3.445,98.553
0.51,110.38,3.445,98.553
0.51,110.38,3.445,98.553
0.51,110.38,3.445,98.553
0.51,110.38,3.445,98.553
0.51,110.38,3.445,98.553
0.51,110.38,3.445,98.553
0.52,110.39,3.445,98.553
0.52,110.39,3.445,98.553
0.52,110.39,3.445,98.553
0.52,110.39,3.445,98.553
0.52,110.39,3.445,98.553
0.53,110.39,3.445,98.553
0.53,110.39,3.445,98.553
0.53,110.39,3.445,98.553
0.53,110.39,3.445,98.552
0.53,110.39,3.445,98.552
0.53,110.39,3.445,98.552
0.53,110.39,3.445,98.552
0.54,110.39,3.445,98.552
0.54,110.39,3.445,98.552
0.54,110.39,3.445,98.552
0.54,110.39,3.445,98.552
0.54,110.39,3.445,98.552
0.55,110.39,3.445,98.551
0.55,110.39,3.445,98.552
0.55,110.39,3.445,98.552
0.55,110.39,3.445,98.551
0.55,110.39,3.445,98.551
0.55,110.39,3.445,98.552
0.55,110.39,3.445,98.552
0.56,110.39,3.445,98.552
0.56,110.39,3.445,98.552
0.56,110.39,3.445,98.551
0.56,110.39,3.445,98.551
0.56,110.39,3.445,98.551
0.57,110.39,3.445,98.551
0.57,110.39,3.445,98.551
0.57,110.39,3.445,98.550
0.57,110.40,3.445,98.550
0.57,110.40,3.445,98.550
0.57,110.40,3.445,98.550
0.58,110.40,3.445,98.550
0.58,110.40,3.445,98.549
0.58,110.40,3.445,98.549
0.58,110.40,3.445,98.549
0.58,110.40,3.445,98.549
0.58,110.40,3.445,98.549
0.58,110.40,3.445,98.549
0.59,110.40,3.445,98.549
0.59,110.40,3.445,98.549
0.59,110.40,3.445,98.549
0.59,110.40,3.445,98.549
0.59,110.40,3.445,98.550
0.60,110.40,3.445,98.550
0.60,110.40,3.445,98.549
0.60,110.40,3.445,98.549
0.60,110.40,3.445,98.549
0.60,110.40,3.445,98.548
0.60,110.40,3.445,98.548
0.60,110.40,3.445,98.548
0.61,110.40,3.445,98.548
0.61,110.40,3.445,98.548
0.61,110.40,3.445,98.548
0.61,110.40,3.445,98.548
0.61,110.40,3.445,98.548
0.62,110.40,3.445,98.548
0.62,110.40,3.445,98.548
0.62,110.40,3.445,98.548
0.62,110.40,3.445,98.548
0.62,110.40,3.445,98.547
0.62,110.40,3.445,98.547
0.63,110.40,3.445,98.547
0.63,110.40,3.445,98.547
0.63,110.40,3.445,98.547
0.63,110.40,3.445,98.547
0.63,110.40,3.445,98.547
0.63,110.41,3.445,98.547
0.63,110.41,3.445,98.547
0.64,110.41,3.445,98.548
0.64,110.41,3.445,98.548
0.64,110.41,3.445,98.548
0.64,110.41,3.445,98.548
0.64,110.41,3.445,98.548
0.65,110.41,3.445,98.547
0.65,110.41,3.445,98.547
0.65,110.41,3.445,98.547
0.65,110.41,3.445,98.547
0.65,110.41,3.445,98.547
0.65,110.41,3.445,98.546
0.65,110.41,3.445,98.546
0.66,110.41,3.445,98.546
0.66,110.41,3.445,98.545
0.66,110.41,3.445,98.545
0.66,110.41,3.445,98.545
0.66,110.41,3.445,98.545
0.67,110.41,3.445,98.546
0.67,110.41,3.445,98.546
0.67,110.41,3.445,98.545
0.67,110.41,3.445,98.545
0.67,110.41,3.445,98.545
0.67,110.41,3.445,98.545
0.68,110.41,3.445,98.545
0.68,110.41,3.445,98.545
0.68,110.41,3.445,98.545
0.68,110.41,3.445,98.544
0.68,110.41,3.445,98.544
0.68,110.41,3.445,98.544
0.68,110.41,3.445,98.544
0.69,110.41,3.445,98.544
0.69,110.41,3.445,98.544
0.69,110.41,3.445,98.544
0.69,110.41,3.445,98.544
0.69,110.41,3.445,98.544
0.70,110.41,3.445,98.544
0.70,110.41,3.445,98.544
0.70,110.41,3.445,98.544
0.70,110.41,3.445,98.544
0.70,110.41,3.445,98.544
0.70,110.41,3.445,98.544
0.70,110.41,3.445,98.543
0.71,110.41,3.445,98.543
0.71,110.41,3.445,98.543
0.71,110.41,3.445,98.543
0.71,110.41,3.445,98.543
0.71,110.41,3.445,98.543
0.72,110.41,3.445,98.543
0.72,110.41,3.445,98.542
0.72,110.42,3.445,98.542
0.72,110.42,3.445,98.542
0.72,110.42,3.445,98.542
0.72,110.42,3.445,98.542
0.73,110.42,3.445,98.542
0.73,110.42,3.445,98.541
0.73,110.42,3.445,98.541
0.73,110.42,3.445,98.541
0.73,110.42,3.445,98.540
0.73,110.42,3.445,98.540
0.73,110.42,3.445,98.541
0.74,110.42,3.445,98.541
0.74,110.42,3.445,98.540
0.74,110.42,3.445,98.540
0.74,110.42,3.445,98.541
0.74,110.42,3.445,98.541
0.75,110.42,3.445,98.541
0.75,110.42,3.445,98.541
0.75,110.42,3.445,98.541
0.75,110.42,3.445,98.541
0.75,110.42,3.445,98.540
0.75,110.42,3.445,98.540
0.75,110.42,3.445,98.540
0.76,110.42,3.445,98.540
0.76,110.42,3.445,98.540
0.76,110.42,3.445,98.539
0.76,110.42,3.445,98.539
0.76,110.42,3.445,98.539
0.77,110.42,3.445,98.539
0.77,110.42,3.445,98.539
0.77,110.42,3.445,98.539
0.77,110.42,3.445,98.539
0.77,110.42,3.445,98.539
0.77,110.42,3.445,98.539
0.78,110.42,3.445,98.538
0.78,110.42,3.445,98.538
0.78,110.42,3.445,98.537
0.78,110.42,3.445,98.537
0.78,110.42,3.445,98.537
0.78,110.42,3.445,98.537
0.78,110.42,3.445,98.537
0.79,110.42,3.445,98.537
0.79,110.42,3.445,98.537
0.79,110.42,3.445,98.537
0.79,110.42,3.445,98.537
0.79,110.42,3.445,98.537
0.80,110.42,3.445,98.537
0.80,110.42,3.445,98.537
0.80,110.42,3.445,98.536
0.80,110.42,3.445,98.537
0.80,110.42,3.445,98.537
0.80,110.42,3.445,98.537
0.80,110.42,3.445,98.536
0.81,110.42,3.445,98.536
0.81,110.42,3.445,98.536
0.81,110.42,3.445,98.536
0.81,110.42,3.445,98.536
0.81,110.42,3.445,98.536
0.82,110.42,3.445,98.536
0.82,110.42,3.445,98.536
0.82,110.42,3.445,98.536
0.82,110.42,3.445,98.536
0.82,110.42,3.445,98.535
0.82,110.42,3.445,98.535
0.83,110.42,3.445,98.535
0.83,110.42,3.445,98.535
0.83,110.42,3.445,98.535
0.83,110.42,3.445,98.535
0.83,110.42,3.445,98.535
0.83,110.42,3.445,98.535
0.83,110.42,3.445,98.534
0.84,110.42,3.445,98.534
0.84,110.42,3.445,98.534
0.84,110.42,3.445,98.534
0.84,110.42,3.445,98.534
0.84,110.42,3.445,98.534
0.85,110.42,3.445,98.534
0.85,110.42,3.445,98.534
0.85,110.42,3.445,98.534
0.85,110.42,3.445,98.534
0.85,110.42,3.445,98.534
0.85,110.42,3.445,98.534
0.85,110.42,3.445,98.534
0.86,110.42,3.445,98.534
0.86,110.42,3.445,98.534
0.86,110.42,3.445,98.534
0.86,110.42,3.445,98.534
0.86,110.42,3.445,98.534
0.87,110.42,3.445,98.534
0.87,110.42,3.445,98.534
0.87,110.42,3.445,98.534
0.87,110.42,3.445,98.534
0.87,110.42,3.445,98.534
0.87,110.42,3.445,98.534
0.88,110.42,3.445,98.534
0.88,110.42,3.445,98.534
0.88,110.42,3.445,98.534
0.88,110.42,3.445,98.533
0.88,110.42,3.445,98.533
0.88,110.42,3.445,98.533
0.88,110.42,3.445,98.533
0.89,110.42,3.445,98.533
0.89,110.42,3.445,98.532
0.89,110.42,3.445,98.532
0.89,110.42,3.445,98.532
0.89,110.42,3.445,98.532
0.90,110.42,3.445,98.532
0.90,110.42,3.445,98.531
0.90,110.42,3.445,98.531
0.90,110.42,3.445,98.531
0.90,110.42,3.445,98.531
0.90,110.42,3.445,98.531
0.90,110.42,3.445,98.531
0.91,110.42,3.445,98.531
0.91,110.42,3.445,98.531
0.91,110.42,3.445,98.531
0.91,110.42,3.445,98.532
0.91,110.42,3.445,98.532
0.92,110.42,3.445,98.532
0.92,110.42,3.445,98.532
0.92,110.42,3.445,98.532
0.92,110.42,3.445,98.532
0.92,110.42,3.445,98.532
0.92,110.42,3.445,98.532
0.93,110.42,3.445,98.531
0.93,110.42,3.445,98.531
0.93,110.42,3.445,98.531
0.93,110.42,3.445,98.531
0.93,110.42,3.445,98.530
0.93,110.42,3.445,98.530
0.93,110.42,3.445,98.530
0.94,110.42,3.445,98.530
0.94,110.42,3.445,98.530
0.94,110.42,3.445,98.530
0.94,110.42,3.445,98.530
0.94,110.42,3.445,98.530
0.95,110.42,3.445,98.530
0.95,110.42,3.445,98.530
0.95,110.42,3.445,98.531
0.95,110.42,3.445,98.531
0.95,110.42,3.445,98.531
0.95,110.42,3.445,98.530
0.95,110.42,3.445,98.531
0.96,110.42,3.445,98.531
0.96,110.42,3.445,98.531
0.96,110.42,3.445,98.531
0.96,110.42,3.445,98.531
0.96,110.42,3.445,98.530
0.97,110.42,3.445,98.530
0.97,110.42,3.445,98.530
0.97,110.42,3.445,98.530
0.97,110.42,3.445,98.530
0.97,110.42,3.445,98.530
0.97,110.42,3.445,98.530
0.98,110.42,3.445,98.530
0.98,110.42,3.445,98.530
0.98,110.42,3.445,98.530
0.98,110.42,3.445,98.530
0.98,110.42,3.445,98.530
0.98,110.42,3.445,98.530
0.98,110.42,3.445,98.530
0.99,110.42,3.445,98.530
0.99,110.42,3.445,98.529
0.99,110.42,3.445,98.529
0.99,110.42,3.445,98.529
0.99,110.42,3.445,98.529
1.00,110.42,3.445,98.529
1.00,110.42,3.444,98.528
1.00,110.42,3.444,98.528

[step]
Ramp 20.00 °C/min to 600.00 °C
Time,Temperature,Weight,Weight,Deriv. Weight
min,°C,mg,%,% / °C
1.00,110.42,3.444,98.528,-0.696850
1.02,110.42,3.444,98.527,4.75318
1.04,110.42,3.444,98.526,0.630533
1.05,110.42,3.444,98.525,-0.464585
1.07,110.43,3.444,98.525,-0.0181628
1.09,110.45,3.444,98.526,0.0327277
1.11,110.48,3.444,98.526,0.0332118
1.13,110.53,3.444,98.527,0.0430460
1.15,110.59,3.444,98.527,-6.56424e-3
1.17,110.68,3.444,98.528,-0.0151577
1.18,110.78,3.445,98.529,2.78572e-3
1.20,110.91,3.444,98.528,9.82215e-3
1.22,111.05,3.445,98.529,-0.0121545
1.24,111.21,3.445,98.530,0.0167154
1.26,111.40,3.445,98.530,8.64974e-3
1.28,111.60,3.445,98.531,8.25993e-3
1.29,111.81,3.445,98.531,-4.31815e-3
1.31,112.05,3.445,98.531,-4.86404e-3
1.33,112.30,3.445,98.529,-7.36398e-3
1.35,112.57,3.445,98.529,3.32543e-3
1.37,112.86,3.445,98.529,-3.59698e-3
1.38,113.16,3.444,98.528,-5.58871e-3
1.40,113.47,3.444,98.527,1.98469e-3
1.42,113.78,3.444,98.527,7.04191e-3
1.44,114.11,3.444,98.526,-6.89715e-3
1.46,114.43,3.444,98.524,-2.08422e-3
1.48,114.77,3.444,98.524,2.62342e-3
1.49,115.10,3.444,98.522,-4.96515e-3
1.51,115.43,3.444,98.521,-5.09284e-3
1.53,115.77,3.444,98.519,-7.90398e-3
1.55,116.11,3.444,98.519,-2.91728e-3
1.57,116.45,3.444,98.519,-6.63065e-4
1.59,116.79,3.444,98.517,-9.02740e-4
1.61,117.14,3.444,98.516,-2.97416e-3
1.62,117.49,3.444,98.515,-7.30972e-3
1.64,117.84,3.444,98.515,-2.44869e-3
1.66,118.19,3.444,98.513,-5.72979e-3
1.68,118.55,3.444,98.510,-7.58932e-3
1.70,118.91,3.444,98.510,-4.63933e-3
1.72,119.27,3.444,98.509,-1.41720e-3
1.73,119.63,3.444,98.509,4.87113e-4
1.75,119.99,3.444,98.508,-4.70319e-3
1.77,120.36,3.444,98.507,-2.82724e-3
1.79,120.72,3.444,98.506,-3.87138e-3
1.81,121.08,3.444,98.504,-1.34517e-3
1.83,121.44,3.444,98.504,6.96357e-5
1.84,121.80,3.444,98.502,-2.06546e-3
1.86,122.17,3.444,98.503,2.43459e-3
1.88,122.53,3.444,98.501,-7.52933e-3
1.90,122.89,3.443,98.499,-1.54935e-3
1.92,123.25,3.443,98.498,1.50003e-3
1.93,123.62,3.443,98.498,3.59182e-3
1.95,123.98,3.443,98.499,1.76957e-3
1.97,124.35,3.443,98.498,-7.22587e-3
1.99,124.71,3.443,98.497,2.19962e-3
2.01,125.08,3.443,98.495,-4.89901e-3
2.03,125.45,3.443,98.495,2.35694e-3
2.04,125.81,3.443,98.494,1.64809e-3
2.06,126.18,3.443,98.493,-8.49318e-3
2.08,126.55,3.443,98.492,-7.10003e-4
2.10,126.91,3.443,98.491,-2.97926e-3
2.12,127.28,3.443,98.490,-2.33882e-3
2.14,127.65,3.443,98.488,8.48624e-4
2.16,128.01,3.443,98.488,-5.41284e-3
2.17,128.38,3.443,98.487,-0.0104782
2.19,128.74,3.443,98.486,-3.04766e-3
2.21,129.11,3.443,98.485,-4.26071e-3
2.23,129.48,3.443,98.483,-1.25890e-3
2.25,129.84,3.443,98.483,-7.70917e-3
2.26,130.21,3.443,98.482,-3.38429e-3
2.28,130.58,3.443,98.481,-5.94390e-3
2.30,130.94,3.443,98.481,1.89790e-3
2.32,131.31,3.443,98.480,-4.04755e-3
2.34,131.68,3.443,98.479,-2.97376e-3
2.36,132.05,3.443,98.478,-3.70755e-3
2.38,132.41,3.443,98.477,-4.80768e-3
2.39,132.78,3.443,98.476,2.12905e-3
2.41,133.14,3.443,98.476,-2.24359e-3
2.43,133.51,3.443,98.476,-8.99725e-3
2.45,133.88,3.443,98.476,-1.21318e-3
2.47,134.24,3.443,98.474,-4.73628e-3
2.49,134.61,3.443,98.473,-7.34152e-3
2.50,134.98,3.443,98.472,-9.15101e-5
2.52,135.35,3.442,98.471,-1.41742e-3
2.54,135.71,3.442,98.470,6.62706e-4
2.56,136.08,3.442,98.470,-2.74283e-3
2.58,136.45,3.442,98.469,-0.0130514
2.59,136.81,3.442,98.468,3.45222e-3
2.61,137.18,3.442,98.468,-6.22007e-3
2.63,137.55,3.442,98.466,-3.40805e-3
2.65,137.92,3.442,98.468,-1.00686e-3
2.67,138.28,3.442,98.467,2.03717e-3
2.69,138.65,3.442,98.467,-1.96877e-3
2.71,139.02,3.442,98.466,-9.61400e-4
2.72,139.38,3.442,98.466,-3.93653e-3
2.74,139.75,3.442,98.463,-2.05876e-4
2.76,140.12,3.442,98.464,5.03489e-4
2.78,140.48,3.442,98.465,-6.36006e-3
2.80,140.85,3.442,98.465,5.74217e-3
2.81,141.22,3.442,98.463,-1.55510e-3
2.83,141.58,3.442,98.462,2.74344e-4
2.85,141.95,3.442,98.461,-9.90085e-3
2.87,142.32,3.442,98.460,1.57823e-3
2.89,142.68,3.442,98.461,-5.53522e-3
2.91,143.05,3.442,98.459,-8.76231e-3
2.93,143.42,3.442,98.458,-1.73913e-3
2.94,143.78,3.442,98.458,-7.11803e-3
2.96,144.15,3.442,98.456,2.54098e-3
2.98,144.52,3.442,98.455,-2.35797e-3
3.00,144.88,3.442,98.453,1.14570e-4
3.02,145.25,3.442,98.453,-2.01434e-3
3.04,145.62,3.442,98.452,-0.0107113
3.05,145.98,3.442,98.451,7.04806e-3
3.07,146.35,3.442,98.451,-3.11167e-3
3.09,146.72,3.442,98.451,1.48731e-3
3.11,147.08,3.442,98.451,2.60839e-3
3.13,147.45,3.442,98.451,-1.76235e-3
3.14,147.82,3.442,98.449,-2.67776e-3
3.16,148.18,3.442,98.448,-3.52564e-3
3.18,148.55,3.442,98.449,-2.58675e-3
3.20,148.92,3.442,98.448,-3.61722e-3
3.22,149.28,3.442,98.447,6.86637e-4
3.24,149.65,3.442,98.446,-5.35574e-3
3.26,150.02,3.442,98.446,-6.54523e-3
3.27,150.38,3.442,98.445,-7.75816e-3
3.29,150.75,3.442,98.445,2.21962e-3
3.31,151.12,3.442,98.443,-4.34684e-3
3.33,151.48,3.441,98.442,-6.65725e-3
3.35,151.85,3.441,98.442,2.97391e-4
3.36,152.22,3.441,98.441,-1.18968e-3
3.38,152.58,3.441,98.440,-2.65412e-3
3.40,152.95,3.441,98.439,1.46417e-3
3.42,153.32,3.441,98.440,-2.35698e-3
3.44,153.69,3.441,98.438,-4.18908e-3
3.46,154.05,3.441,98.437,1.51175e-3
3.48,154.42,3.441,98.436,-7.83502e-3
3.49,154.78,3.441,98.435,-3.77920e-3
3.51,155.15,3.441,98.432,-0.0114292
3.53,155.52,3.441,98.433,0.0108795
3.55,155.88,3.441,98.434,1.58017e-3
3.57,156.25,3.441,98.434,-6.86931e-4
3.59,156.62,3.441,98.432,-1.14493e-3
3.60,156.98,3.441,98.432,2.74713e-4
3.62,157.35,3.441,98.432,-2.03720e-3
3.64,157.72,3.441,98.431,-4.55586e-3
3.66,158.08,3.441,98.429,-3.06734e-3
3.68,158.45,3.441,98.428,-0.0113745
3.69,158.82,3.441,98.427,-2.56413e-3
3.71,159.18,3.441,98.427,-1.80861e-3
3.73,159.55,3.441,98.426,-1.83115e-4
3.75,159.92,3.441,98.426,5.70166e-3
3.77,160.28,3.441,98.425,-2.72502e-3
3.79,160.65,3.441,98.424,-5.15414e-3
3.81,161.02,3.441,98.424,-8.70362e-4
3.82,161.38,3.441,98.424,-7.76355e-3
3.84,161.75,3.441,98.424,-3.27531e-3
3.86,162.11,3.441,98.423,-0.0106505
3.88,162.48,3.441,98.420,-3.25160e-3
3.90,162.85,3.441,98.420,2.61086e-3
3.91,163.21,3.441,98.420,-5.85990e-3
3.93,163.58,3.441,98.420,-2.65553e-3
3.95,163.95,3.441,98.420,5.47229e-3
3.97,164.31,3.441,98.419,-4.62413e-3
3.99,164.68,3.441,98.420,0.0123871
4.01,165.05,3.441,98.420,-4.44229e-3
4.03,165.41,3.441,98.419,-1.19102e-3
4.04,165.78,3.441,98.418,-3.55016e-3
4.06,166.15,3.441,98.418,2.86360e-3
4.08,166.51,3.441,98.418,-3.43518e-3
4.10,166.88,3.441,98.416,-4.12277e-3
4.12,167.25,3.441,98.416,1.83326e-4
4.14,167.61,3.441,98.416,-8.65882e-3
4.15,167.98,3.441,98.416,-2.97724e-4
4.17,168.34,3.441,98.416,-6.94152e-3
4.19,168.71,3.441,98.415,5.26825e-4
4.21,169.08,3.440,98.413,-5.56672e-3
4.23,169.44,3.440,98.411,-9.09420e-3
4.24,169.81,3.440,98.410,-2.95512e-3
4.26,170.18,3.440,98.409,-1.67196e-3
4.28,170.54,3.440,98.408,-6.86478e-5
4.30,170.91,3.440,98.405,-0.0103291
4.32,171.28,3.440,98.407,7.09871e-3
4.34,171.64,3.440,98.407,-6.91460e-3
4.35,172.01,3.440,98.405,-5.01374e-3
4.37,172.38,3.440,98.405,-1.30535e-3
4.39,172.74,3.440,98.405,1.30554e-3
4.41,173.11,3.440,98.404,4.53504e-3
4.43,173.47,3.440,98.404,-6.38943e-3
4.45,173.84,3.440,98.403,1.51184e-3
4.46,174.21,3.440,98.403,-2.28413e-5
4.48,174.57,3.440,98.398,-0.0170220
4.50,174.94,3.440,98.401,9.23325e-3
4.52,175.31,3.440,98.400,-8.88878e-3
4.54,175.67,3.440,98.399,1.25964e-3
4.56,176.04,3.440,98.398,-8.04006e-3
4.58,176.41,3.440,98.398,6.77846e-3
4.59,176.77,3.440,98.399,-6.54993e-3
4.61,177.14,3.440,98.398,-1.21384e-3
4.63,177.50,3.440,98.396,-3.89372e-4
4.65,177.87,3.440,98.395,-3.09165e-3
4.67,178.24,3.440,98.397,3.64141e-3
4.69,178.60,3.440,98.395,-0.0150710
4.70,178.97,3.440,98.396,3.61887e-3
4.72,179.34,3.440,98.395,-3.77920e-3
4.74,179.70,3.440,98.393,-6.41223e-3
4.76,180.07,3.440,98.394,-1.67201e-3
4.78,180.44,3.440,98.392,-0.0114778
4.80,180.80,3.440,98.389,9.84883e-4
4.81,181.17,3.440,98.390,-3.32112e-3
4.83,181.54,3.440,98.391,1.44275e-3
4.85,181.90,3.440,98.390,-0.0122062
4.87,182.27,3.440,98.388,-2.06132e-3
4.89,182.63,3.440,98.387,-8.04017e-3
4.90,183.00,3.440,98.386,4.12365e-4
4.92,183.37,3.439,98.385,-3.52800e-3
4.94,183.73,3.440,98.386,-5.26712e-4
4.96,184.10,3.439,98.384,-1.16860e-3
4.98,184.47,3.439,98.383,-0.0102874
5.00,184.83,3.439,98.383,-1.53504e-3
5.01,185.20,3.439,98.381,-3.00131e-3
5.03,185.57,3.439,98.382,2.09919e-8
5.05,185.93,3.439,98.381,-1.35140e-3
5.07,186.30,3.439,98.379,-1.14305e-4
5.09,186.66,3.439,98.379,1.67169e-3
5.11,187.03,3.439,98.379,2.61050e-3
5.13,187.40,3.439,98.377,-3.61728e-3
5.14,187.76,3.439,98.376,-9.54798e-3
5.16,188.13,3.439,98.375,5.49608e-3
5.18,188.50,3.439,98.375,4.35036e-4
5.20,188.86,3.439,98.374,-3.48145e-3
5.22,189.23,3.439,98.372,-2.01557e-3
5.24,189.60,3.439,98.371,-5.22308e-3
5.25,189.96,3.439,98.371,-9.87327e-3
5.27,190.33,3.439,98.370,3.91758e-3
5.29,190.70,3.439,98.369,-1.67220e-3
5.31,191.06,3.439,98.370,-2.13060e-3
5.33,191.43,3.439,98.369,2.93289e-3
5.35,191.79,3.439,98.368,-7.37581e-3
5.36,192.16,3.439,98.368,-1.60370e-3
5.38,192.53,3.439,98.365,-4.69572e-3
5.40,192.89,3.439,98.365,-1.05396e-3
5.42,193.26,3.439,98.365,-2.28350e-5
5.44,193.63,3.439,98.365,-7.56200e-3
5.45,193.99,3.439,98.367,2.56645e-3
5.47,194.36,3.439,98.363,-8.24931e-3
5.49,194.72,3.439,98.364,-2.03979e-3
5.51,195.09,3.439,98.363,-7.79308e-4
5.53,195.46,3.439,98.363,-2.54345e-3
5.55,195.82,3.439,98.360,-7.90375e-3
5.56,196.19,3.439,98.360,-8.77289e-3
5.58,196.56,3.439,98.359,8.17682e-3
5.60,196.92,3.439,98.360,-1.96937e-3
5.62,197.29,3.439,98.360,-6.38756e-3
5.64,197.66,3.439,98.359,-3.20586e-3
5.66,198.02,3.439,98.358,-8.35813e-3
5.68,198.39,3.438,98.356,-1.14493e-3
5.69,198.75,3.438,98.357,-3.87160e-3
5.71,199.12,3.438,98.355,4.88084e-3
5.73,199.49,3.438,98.355,8.91416e-3
5.75,199.85,3.438,98.354,-2.38398e-3
5.77,200.22,3.438,98.354,6.05091e-3
5.79,200.59,3.438,98.353,-6.27995e-3
5.80,200.95,3.438,98.353,-9.39570e-4
5.82,201.32,3.438,98.352,-2.42858e-3
5.84,201.68,3.438,98.352,-6.20849e-3
5.86,202.05,3.438,98.346,-0.0382133
5.88,202.42,3.438,98.340,-4.92373e-3
5.90,202.78,3.438,98.343,4.07559e-3
5.91,203.15,3.438,98.343,-4.32748e-3
5.93,203.52,3.438,98.343,-6.34380e-3
5.95,203.88,3.438,98.342,-8.03802e-3
5.97,204.25,3.438,98.343,4.57976e-3
5.99,204.62,3.438,98.344,0.0117270
6.00,204.98,3.438,98.343,9.85290e-4
6.02,205.35,3.438,98.343,-0.0100171
6.04,205.71,3.438,98.343,1.16968e-3
6.06,206.08,3.438,98.346,-3.20991e-4
6.08,206.45,3.438,98.347,8.87738e-3
6.10,206.81,3.438,98.348,-2.01768e-3
6.11,207.18,3.438,98.348,-6.28067e-3
6.13,207.54,3.438,98.350,7.58254e-3
6.15,207.91,3.438,98.351,-4.85392e-3
6.17,208.28,3.438,98.352,-1.69346e-3
6.19,208.64,3.438,98.349,-6.38248e-3
6.21,209.01,3.438,98.348,4.11711e-3
6.23,209.38,3.438,98.350,-5.26075e-4
6.24,209.75,3.438,98.351,-2.76888e-3
6.26,210.11,3.438,98.350,-0.0132765
6.28,210.48,3.438,98.348,-5.72537e-4
6.30,210.84,3.438,98.347,-7.19398e-3
6.32,211.21,3.438,98.346,-7.83897e-3
6.34,211.58,3.438,98.345,-5.52362e-3
6.35,211.94,3.438,98.346,3.57521e-3
6.37,212.31,3.438,98.346,5.65913e-3
6.39,212.68,3.438,98.343,3.91722e-3
6.41,213.04,3.438,98.343,-0.0117025
6.43,213.41,3.438,98.341,3.75589e-3
6.45,213.78,3.438,98.340,-6.73077e-3
6.46,214.14,3.438,98.339,-7.39661e-3
6.48,214.51,3.438,98.339,1.69485e-3
6.50,214.87,3.438,98.339,1.28290e-3
6.52,215.24,3.438,98.339,1.44339e-3
6.54,215.61,3.438,98.339,-5.61323e-3
6.55,215.97,3.438,98.337,2.26803e-3
6.57,216.34,3.438,98.337,-3.39175e-3
6.59,216.71,3.438,98.337,3.50576e-3
6.61,217.07,3.438,98.339,5.49700e-4
6.63,217.44,3.438,98.339,2.40579e-3
6.65,217.80,3.438,98.338,-9.13948e-3
6.66,218.17,3.438,98.337,-7.69468e-3
6.68,218.54,3.438,98.334,-0.0152564
6.70,218.90,3.438,98.335,-2.97837e-3
6.72,219.27,3.438,98.334,9.55022e-3
6.74,219.64,3.438,98.334,-3.50455e-3
6.76,220.00,3.438,98.332,-0.0115896
6.78,220.37,3.438,98.329,-5.81768e-3
6.79,220.74,3.437,98.327,-9.29685e-3
6.81,221.10,3.437,98.327,-1.99197e-3
6.83,221.47,3.437,98.325,-0.0233539
6.85,221.84,3.437,98.324,3.73089e-3
6.87,222.20,3.437,98.323,-4.48733e-3
6.89,222.57,3.437,98.322,-0.0125702
6.90,222.94,3.437,98.321,7.05235e-3
6.92,223.30,3.437,98.325,2.06031e-4
6.94,223.67,3.437,98.326,-7.30608e-3
6.96,224.03,3.437,98.324,3.61950e-3
6.98,224.40,3.437,98.324,-0.0121188
7.00,224.77,3.437,98.323,-4.30711e-3
7.01,225.13,3.437,98.319,-7.10152e-3
7.03,225.50,3.437,98.319,-6.54935e-3
7.05,225.87,3.437,98.316,1.71762e-3
7.07,226.23,3.437,98.318,9.63885e-3
7.09,226.60,3.437,98.318,-2.05994e-4
7.10,226.97,3.437,98.317,-0.0109940
7.12,227.33,3.437,98.314,-0.0100802
7.14,227.70,3.437,98.316,0.0117049
7.16,228.07,3.437,98.318,-3.27598e-3
7.18,228.43,3.437,98.318,-0.0107893
7.20,228.80,3.437,98.317,2.72686e-3
7.21,229.16,3.437,98.318,2.86361e-3
7.23,229.53,3.437,98.317,-6.16080e-3
7.25,229.90,3.437,98.317,-3.02353e-3
7.27,230.26,3.437,98.315,2.49542e-3
7.29,230.63,3.437,98.314,-1.07604e-3
7.31,231.00,3.437,98.312,1.25890e-3
7.33,231.36,3.437,98.311,-8.05703e-3
7.34,231.73,3.437,98.309,-1.51127e-3
7.36,232.10,3.437,98.309,-2.95451e-3
7.38,232.46,3.437,98.308,-2.79464e-3
7.40,232.83,3.437,98.308,-4.90266e-3
7.42,233.20,3.437,98.306,-1.60338e-4
7.44,233.56,3.437,98.306,-1.48915e-3
7.45,233.93,3.437,98.305,-3.36660e-3
7.47,234.29,3.437,98.306,9.39020e-4
7.49,234.66,3.437,98.304,-1.67184e-3
7.51,235.03,3.437,98.304,-2.08422e-3
7.53,235.39,3.437,98.301,-4.12277e-3
7.55,235.76,3.436,98.299,-6.66469e-3
7.56,236.13,3.436,98.297,-2.90901e-3
7.58,236.49,3.436,98.296,-0.0120945
7.60,236.86,3.436,98.295,-3.43635e-4
7.62,237.23,3.436,98.296,1.14521e-3
7.64,237.59,3.436,98.296,-9.59582e-3
7.65,237.96,3.436,98.294,3.87082e-3
7.67,238.33,3.436,98.296,-4.87695e-3
7.69,238.69,3.436,98.295,-4.64812e-3
7.71,239.06,3.436,98.295,3.75502e-3
7.73,239.43,3.436,98.293,-7.78212e-4
7.75,239.79,3.436,98.293,-4.57957e-4
7.76,240.16,3.436,98.292,-3.38951e-3
7.78,240.52,3.436,98.290,-3.91664e-3
7.80,240.89,3.436,98.291,-3.45954e-3
7.82,241.26,3.436,98.291,-6.85209e-3
7.84,241.62,3.436,98.289,-9.55663e-3
7.86,241.99,3.436,98.287,7.26322e-3
7.88,242.36,3.436,98.288,-1.23681e-3
7.89,242.72,3.436,98.286,-5.06184e-3
7.91,243.09,3.436,98.288,0.0163965
7.93,243.46,3.436,98.291,6.93647e-3
7.95,243.82,3.436,98.291,-0.0133452
7.97,244.19,3.436,98.288,4.34826e-3
7.99,244.56,3.436,98.289,0.0137564
8.00,244.92,3.436,98.288,-4.94661e-3
8.02,245.29,3.436,98.287,4.78761e-3
8.04,245.65,3.436,98.283,-3.96300e-3
8.06,246.02,3.436,98.282,-5.49796e-3
8.08,246.39,3.436,98.282,1.64986e-3
8.10,246.75,3.436,98.279,-1.55841e-3
8.11,247.12,3.436,98.279,9.39408e-3
8.13,247.49,3.436,98.281,6.87128e-5
8.15,247.85,3.436,98.281,-4.37471e-3
8.17,248.22,3.436,98.280,-9.04582e-3
8.19,248.59,3.436,98.276,-1.37451e-4
8.20,248.95,3.436,98.275,-3.52627e-3
8.22,249.32,3.436,98.274,-6.34255e-3
8.24,249.68,3.436,98.274,-2.56475e-3
8.26,250.05,3.436,98.274,4.67078e-3
8.28,250.42,3.436,98.274,1.51110e-3
8.30,250.78,3.436,98.274,-7.30241e-3
8.31,251.15,3.436,98.275,0.0108529
8.33,251.52,3.436,98.274,-0.0163462
8.35,251.88,3.436,98.272,-1.12177e-3
8.37,252.25,3.436,98.271,-0.0157302
8.39,252.62,3.436,98.273,-4.28077e-3
8.41,252.98,3.435,98.270,2.03755e-3
8.43,253.35,3.435,98.270,-0.0147241
8.44,253.72,3.435,98.269,9.18302e-3
8.46,254.08,3.435,98.271,-7.76454e-3
8.48,254.45,3.435,98.269,7.69438e-3
8.50,254.82,3.435,98.268,-0.0222587
8.52,255.18,3.435,98.268,0.0122513
8.53,255.55,3.435,98.266,1.16812e-3
8.55,255.92,3.435,98.266,-2.74760e-3
8.57,256.28,3.435,98.266,-2.35860e-3
8.59,256.65,3.435,98.264,-4.55688e-3
8.61,257.02,3.435,98.264,1.48833e-3
8.63,257.38,3.435,98.265,1.90077e-3
8.65,257.75,3.435,98.267,1.97019e-3
8.66,258.11,3.435,98.267,-2.63402e-3
8.68,258.48,3.435,98.267,-3.82573e-3
8.70,258.85,3.435,98.265,-0.0138140
8.72,259.21,3.435,98.262,-0.0100118
8.74,259.58,3.435,98.261,0.0108129
8.75,259.95,3.435,98.262,-5.15289e-3
8.77,260.31,3.435,98.260,0.0103289
8.79,260.68,3.435,98.260,-0.0138086
8.81,261.05,3.435,98.260,2.49542e-3
8.83,261.41,3.435,98.259,-7.37179e-3
8.85,261.78,3.435,98.259,-4.44139e-3
8.87,262.14,3.435,98.257,-2.74758e-3
8.88,262.51,3.435,98.256,-2.17588e-3
8.90,262.88,3.435,98.255,-5.63475e-3
8.92,263.24,3.435,98.255,-8.31425e-3
8.94,263.61,3.435,98.253,1.44293e-3
8.96,263.98,3.435,98.254,2.58700e-3
8.98,264.34,3.435,98.255,-7.78388e-4
8.99,264.71,3.435,98.254,9.32029e-3
9.01,265.08,3.435,98.251,-1.37316e-4
9.03,265.44,3.435,98.251,-3.61881e-3
9.05,265.81,3.435,98.253,-0.0112226
9.07,266.18,3.435,98.251,3.43742e-4
9.08,266.54,3.435,98.253,3.82524e-3
9.10,266.91,3.435,98.255,4.16825e-3
9.12,267.28,3.435,98.254,-0.0156466
9.14,267.64,3.435,98.253,-1.25983e-3
9.16,268.01,3.435,98.254,4.12251e-3
9.18,268.37,3.435,98.253,0.0102629
9.20,268.74,3.435,98.251,-2.97763e-3
9.21,269.11,3.435,98.251,8.47896e-4
9.23,269.47,3.435,98.251,4.92441e-3
9.25,269.84,3.435,98.249,-9.64228e-3
9.27,270.21,3.435,98.251,4.69400e-3
9.29,270.57,3.435,98.249,6.97990e-3
9.30,270.94,3.435,98.252,5.65215e-3
9.32,271.31,3.435,98.250,-0.0104576
9.34,271.67,3.435,98.248,-2.83771e-3
9.36,272.04,3.435,98.244,-0.0131086
9.38,272.41,3.434,98.242,-5.28615e-3
9.40,272.77,3.434,98.241,-7.18600e-3
9.42,273.14,3.434,98.240,-4.50797e-3
9.43,273.51,3.434,98.239,-2.33516e-3
9.45,273.87,3.434,98.237,1.41905e-3
9.47,274.24,3.434,98.236,4.12088e-3
9.49,274.61,3.434,98.234,-8.69838e-4
9.51,274.97,3.434,98.234,-2.63196e-3
9.53,275.34,3.434,98.236,-0.0165905
9.54,275.71,3.434,98.233,-7.78007e-4
9.56,276.07,3.434,98.231,-3.88948e-3
9.58,276.44,3.434,98.231,9.93351e-3
9.60,276.81,3.434,98.226,-6.75196e-3
9.62,277.17,3.434,98.227,-9.61533e-3
9.63,277.54,3.434,98.226,0.0109890
9.65,277.91,3.434,98.228,0.0157812
9.67,278.27,3.434,98.229,8.15246e-3
9.69,278.64,3.434,98.227,-0.0104231
9.71,279.01,3.434,98.226,0.0100777
9.73,279.37,3.434,98.225,-0.0129777
9.75,279.74,3.434,98.225,-2.33405e-3
9.76,280.11,3.434,98.223,0.0108484
9.78,280.47,3.434,98.221,-1.09836e-3
9.80,280.84,3.434,98.221,6.43463e-3
9.82,281.21,3.434,98.222,-9.57206e-3
9.84,281.57,3.434,98.219,-5.06098e-3
9.85,281.94,3.434,98.217,-1.39780e-3
9.87,282.30,3.434,98.216,-6.16267e-3
9.89,282.67,3.433,98.213,-9.92094e-3
9.91,283.04,3.433,98.211,1.69538e-3
9.93,283.40,3.433,98.210,0.0120650
9.95,283.77,3.433,98.208,-0.0202610
9.97,284.14,3.433,98.209,0.0111722
9.98,284.50,3.433,98.210,1.83150e-4
10.00,284.87,3.433,98.210,-5.07982e-3
10.02,285.24,3.433,98.209,-4.64704e-3
10.04,285.60,3.433,98.206,-0.0109172
10.06,285.97,3.433,98.204,-7.67147e-3
10.08,286.34,3.433,98.200,-0.0140642
10.09,286.70,3.433,98.199,2.86371e-3
10.11,287.07,3.433,98.197,-2.91017e-3
10.13,287.44,3.433,98.195,6.41579e-4
10.15,287.80,3.433,98.191,-3.64212e-3
10.17,288.17,3.433,98.190,-4.07626e-3
10.18,288.53,3.433,98.190,5.06018e-3
10.20,288.90,3.433,98.190,-3.66317e-4
10.22,289.27,3.433,98.189,2.28933e-3
10.24,289.63,3.433,98.187,-4.14835e-3
10.26,290.00,3.432,98.184,9.62979e-4
10.28,290.37,3.432,98.184,-1.14805e-4
10.30,290.73,3.432,98.183,-5.11528e-3
10.31,291.10,3.432,98.180,-8.75953e-3
10.33,291.46,3.432,98.180,-7.42978e-3
10.35,291.83,3.432,98.179,-7.85976e-3
10.37,292.20,3.432,98.177,-2.01552e-3
10.39,292.56,3.432,98.177,-9.13043e-3
10.40,292.93,3.432,98.175,-7.18207e-3
10.42,293.30,3.432,98.173,-1.83137e-4
10.44,293.66,3.432,98.170,-6.42503e-3
10.46,294.03,3.432,98.169,-4.96251e-3
10.48,294.40,3.432,98.164,-0.0101327
10.50,294.76,3.432,98.166,0.0141677
10.52,295.13,3.432,98.165,-1.28250e-3
10.53,295.50,3.432,98.163,-0.0145548
10.55,295.86,3.432,98.163,3.16459e-3
10.57,296.23,3.432,98.159,-6.92501e-3
10.59,296.59,3.432,98.159,-1.81262e-3
10.61,296.96,3.432,98.157,-9.63829e-3
10.63,297.33,3.431,98.154,3.97131e-3
10.64,297.69,3.431,98.153,-2.72936e-3
10.66,298.06,3.431,98.151,-0.0103839
10.68,298.42,3.431,98.151,-0.0157883
10.70,298.79,3.431,98.144,-2.77171e-3
10.72,299.16,3.431,98.147,-4.41893e-3
10.73,299.52,3.431,98.144,-6.29740e-3
10.75,299.89,3.431,98.141,-0.0160262
10.77,300.26,3.431,98.140,-5.77064e-3
10.79,300.62,3.431,98.138,-1.80936e-3
10.81,300.99,3.431,98.135,-9.55545e-3
10.83,301.36,3.431,98.134,-2.15399e-3
10.85,301.72,3.431,98.133,-0.0142486
10.86,302.09,3.431,98.130,5.93237e-3
10.88,302.45,3.431,98.129,-3.96255e-3
10.90,302.82,3.430,98.128,-5.31278e-3
10.92,303.19,3.430,98.127,3.65923e-4
10.94,303.55,3.430,98.123,-4.39480e-3
10.95,303.92,3.430,98.125,-4.59978e-3
10.97,304.29,3.430,98.123,6.22592e-3
10.99,304.65,3.430,98.123,3.89286e-4
11.01,305.02,3.430,98.123,9.20113e-3
11.03,305.39,3.430,98.123,-4.89759e-3
11.05,305.75,3.430,98.121,-0.0132291
11.07,306.12,3.430,98.117,-2.74725e-3
11.08,306.49,3.430,98.116,-0.0217887
11.10,306.85,3.430,98.114,-0.0160872
11.12,307.22,3.430,98.111,-8.71834e-3
11.14,307.59,3.430,98.109,4.46239e-3
11.16,307.95,3.430,98.107,-2.81593e-3
11.18,308.32,3.430,98.106,-9.29689e-3
11.19,308.69,3.430,98.105,-3.73327e-3
11.21,309.05,3.430,98.106,0.0117324
11.23,309.42,3.430,98.104,1.42096e-3
11.25,309.79,3.430,98.103,-5.22503e-3
11.27,310.15,3.430,98.101,-1.26043e-3
11.28,310.52,3.430,98.101,-0.0193274
11.30,310.89,3.429,98.099,5.03663e-3
11.32,311.25,3.429,98.098,-0.0140568
11.34,311.62,3.429,98.095,-9.22421e-3
11.36,311.99,3.429,98.092,-5.42679e-3
11.38,312.35,3.429,98.094,-0.0168981
11.40,312.72,3.429,98.090,-2.77195e-3
11.41,313.08,3.429,98.086,-1.53509e-3
11.43,313.45,3.429,98.084,-6.71402e-3
11.45,313.82,3.429,98.082,-4.58295e-3
11.47,314.18,3.429,98.081,-1.67278e-3
11.49,314.55,3.429,98.080,-0.0110661
11.50,314.92,3.429,98.078,2.15348e-3
11.52,315.28,3.429,98.079,6.78062e-3
11.54,315.65,3.429,98.077,-9.16179e-3
11.56,316.02,3.429,98.075,-3.93903e-3
11.58,316.38,3.429,98.072,-2.84010e-3
11.60,316.75,3.428,98.070,-9.00151e-3
11.62,317.11,3.428,98.067,-9.06741e-3
11.63,317.48,3.428,98.066,-1.87765e-3
11.65,317.85,3.428,98.063,-2.38106e-3
11.67,318.21,3.428,98.062,4.96979e-3
11.69,318.58,3.428,98.058,-7.32925e-3
11.71,318.95,3.428,98.056,-0.0101015
11.73,319.31,3.428,98.053,-0.0164881
11.74,319.68,3.428,98.048,5.01502e-3
11.76,320.05,3.428,98.046,-0.0157051
11.78,320.41,3.428,98.044,-0.0122289
11.80,320.78,3.427,98.040,-3.09120e-3
11.82,321.15,3.427,98.037,5.24462e-3
11.83,321.51,3.427,98.035,4.83059e-3
11.85,321.88,3.427,98.031,1.83150e-4
11.87,322.25,3.427,98.029,-7.62542e-3
11.89,322.61,3.427,98.027,-0.0104853
11.91,322.98,3.427,98.025,-7.18864e-3
11.93,323.34,3.427,98.020,-0.0141524
11.95,323.71,3.427,98.019,-8.35879e-3
11.96,324.08,3.427,98.016,-4.80769e-3
11.98,324.44,3.426,98.011,-0.0117688
12.00,324.81,3.426,98.007,-7.92238e-3
[...]
15.58,396.27,2.922,83.569,-0.208067
15.59,396.64,2.913,83.327,-0.620865
15.61,397.00,2.906,83.119,-0.484580
15.63,397.37,2.900,82.957,-0.408251
15.65,397.74,2.893,82.758,-0.861561
15.67,398.10,2.881,82.411,-0.350021
15.68,398.47,2.877,82.287,-0.481548
15.70,398.84,2.870,82.097,-0.492327
15.72,399.20,2.859,81.789,-0.478860
15.74,399.57,2.852,81.593,-0.743328
15.76,399.93,2.845,81.387,-0.632590
15.78,400.30,2.835,81.106,-0.454127
15.80,400.67,2.828,80.889,-0.495069
15.81,401.03,2.821,80.696,-0.646990
15.83,401.40,2.812,80.428,-0.658066
15.85,401.77,2.803,80.190,-0.925183
15.87,402.13,2.794,79.915,-0.537685
15.89,402.50,2.786,79.679,-0.440466
15.90,402.87,2.777,79.444,-0.842108
15.92,403.23,2.768,79.181,-0.587314
15.94,403.60,2.758,78.893,-0.372273
15.96,403.96,2.750,78.673,-0.770522
15.98,404.33,2.740,78.370,-0.350206
16.00,404.70,2.733,78.167,-0.384739
16.02,405.06,2.723,77.901,-0.804425
16.03,405.43,2.712,77.577,-1.04094
16.05,405.80,2.707,77.425,-0.715282
16.07,406.16,2.697,77.141,-0.822594
16.09,406.53,2.688,76.902,-0.736091
16.11,406.89,2.678,76.616,-0.750879
16.13,407.26,2.667,76.299,-0.650518
16.14,407.63,2.658,76.027,-0.799749
16.16,407.99,2.650,75.793,-0.500694
16.18,408.36,2.639,75.483,-0.868258
16.20,408.73,2.627,75.155,-0.853987
16.22,409.09,2.619,74.907,-0.676451
16.23,409.46,2.609,74.637,-0.953896
16.25,409.83,2.598,74.324,-1.20885
16.27,410.19,2.590,74.078,-0.394157
16.29,410.56,2.579,73.759,-0.601354
16.31,410.92,2.568,73.450,-0.957530
16.33,411.29,2.559,73.189,-0.613370
16.35,411.66,2.546,72.820,-0.640521
16.36,412.02,2.534,72.493,-1.10800
16.38,412.39,2.527,72.291,-0.781254
16.40,412.76,2.516,71.963,-1.10238
16.42,413.12,2.506,71.677,-0.626603
16.44,413.49,2.494,71.332,-0.811052
16.45,413.86,2.484,71.045,-1.14936
16.47,414.22,2.469,70.628,-0.451633
16.49,414.59,2.461,70.404,-1.08651
16.51,414.96,2.447,69.994,-0.676237
16.53,415.32,2.438,69.741,-1.15052
16.55,415.69,2.427,69.420,-0.436314
16.57,416.05,2.412,68.997,-1.18394
16.58,416.42,2.403,68.745,-0.965706
16.60,416.79,2.392,68.434,-0.934656
16.62,417.15,2.380,68.087,-0.776604
16.64,417.52,2.369,67.763,-0.714822
16.66,417.89,2.357,67.412,-1.05185
16.68,418.25,2.341,66.955,-0.904760
16.69,418.62,2.331,66.685,-1.41880
16.71,418.99,2.319,66.337,-0.890549
16.73,419.35,2.307,65.983,-1.51909
16.75,419.72,2.295,65.635,-0.777474
16.77,420.08,2.281,65.239,-0.978706
16.78,420.45,2.269,64.898,-1.10843
16.80,420.82,2.257,64.555,-1.23788
16.82,421.18,2.243,64.168,-1.17149
16.84,421.55,2.232,63.842,-1.13064
16.86,421.92,2.216,63.386,-1.24278
16.88,422.28,2.206,63.114,-1.05951
16.90,422.65,2.190,62.630,-0.601658
16.91,423.02,2.182,62.403,-0.935401
16.93,423.38,2.164,61.904,-0.572268
16.95,423.75,2.152,61.560,-0.908056
16.97,424.12,2.137,61.115,-0.852226
16.99,424.48,2.123,60.719,-1.26592
17.00,424.85,2.109,60.341,-1.38865
17.02,425.21,2.096,59.953,-0.893962
17.04,425.58,2.083,59.596,-0.805026
17.06,425.95,2.068,59.151,-1.50685
17.08,426.31,2.052,58.700,-1.14465
17.10,426.68,2.038,58.310,-1.88227
17.12,427.05,2.026,57.944,-0.590593
17.13,427.41,2.013,57.567,-1.24877
17.15,427.78,2.001,57.236,-1.49265
17.17,428.14,1.982,56.702,-0.792543
17.19,428.51,1.967,56.254,-0.921684
17.21,428.88,1.953,55.867,-0.774858
17.23,429.24,1.938,55.427,-0.889962
17.24,429.61,1.923,55.005,-1.17534
17.26,429.98,1.906,54.532,-0.482382
17.28,430.34,1.892,54.118,-1.03649
17.30,430.71,1.878,53.727,-1.06481
17.32,431.07,1.863,53.294,-0.755115
17.33,431.44,1.848,52.872,-1.36042
17.35,431.81,1.835,52.500,-1.37589
17.37,432.17,1.817,51.963,-1.08849
17.39,432.54,1.802,51.549,-1.05669
17.41,432.90,1.787,51.123,-1.12832
17.43,433.27,1.771,50.645,-1.39011
17.44,433.64,1.758,50.293,-2.20294
17.46,434.00,1.740,49.785,-0.716352
17.48,434.37,1.725,49.353,-0.690739
17.50,434.74,1.710,48.922,-0.972528
17.52,435.10,1.696,48.515,-0.769880
17.54,435.47,1.680,48.043,-1.02964
17.56,435.84,1.665,47.635,-1.17479
17.57,436.20,1.650,47.202,-0.849108
17.59,436.57,1.632,46.691,-2.01148
17.61,436.94,1.621,46.362,-1.16371
17.63,437.30,1.604,45.873,-0.991660
17.65,437.67,1.593,45.557,-0.638439
17.67,438.03,1.578,45.134,-0.380415
17.68,438.40,1.565,44.775,-1.11016
17.70,438.77,1.546,44.222,-2.58608
17.72,439.13,1.537,43.978,-0.933533
17.74,439.50,1.523,43.558,-0.871337
17.76,439.87,1.509,43.156,-1.34676
17.78,440.23,1.501,42.935,-0.871325
17.79,440.60,1.487,42.529,-0.402641
17.81,440.97,1.479,42.311,-0.680466
17.83,441.33,1.469,42.009,-0.171556
17.85,441.70,1.461,41.797,-0.524908
17.87,442.06,1.454,41.593,-0.448791
17.88,442.43,1.448,41.434,-0.337580
17.90,442.80,1.443,41.274,-0.562089
17.92,443.16,1.440,41.177,-0.202452
17.94,443.53,1.437,41.104,-0.230820
17.96,443.90,1.434,41.016,-0.179118
17.98,444.26,1.431,40.946,-0.184422
17.99,444.63,1.429,40.885,-0.121024
18.01,444.99,1.428,40.846,-0.0877582
18.03,445.36,1.426,40.800,-0.0998219
18.05,445.73,1.425,40.754,-0.125263
18.07,446.09,1.424,40.725,-0.0507693
18.09,446.46,1.422,40.683,-0.0862518
18.11,446.83,1.421,40.650,-0.0902039
18.12,447.19,1.420,40.604,-0.117780
18.14,447.56,1.419,40.578,-0.171966
18.16,447.93,1.417,40.528,-0.0895626
18.18,448.29,1.416,40.491,-0.197733
18.20,448.66,1.414,40.454,-0.0775281
18.22,449.02,1.413,40.422,-0.0809753
18.23,449.39,1.412,40.383,-0.114477
18.25,449.76,1.411,40.352,-0.0940993
18.27,450.12,1.410,40.320,-0.0854671
18.29,450.49,1.408,40.289,-0.0869105
18.31,450.86,1.407,40.257,-0.0851169
18.33,451.22,1.406,40.218,-0.0790271
18.34,451.59,1.405,40.190,-0.0849745
18.36,451.96,1.404,40.159,-0.0730285
18.38,452.32,1.403,40.130,-0.0823027
18.40,452.69,1.402,40.097,-0.0999978
18.42,453.06,1.401,40.072,-0.0679464
18.43,453.42,1.400,40.038,-0.0830889
18.45,453.79,1.398,40.002,-0.0873052
18.47,454.15,1.398,39.979,-0.0770725
18.49,454.52,1.397,39.952,-0.0736251
18.51,454.89,1.396,39.927,-0.0715727
18.53,455.25,1.395,39.898,-0.0947373
18.54,455.62,1.394,39.872,-0.0622076
18.56,455.99,1.393,39.851,-0.0775304
18.58,456.35,1.392,39.826,-0.0613313
18.60,456.72,1.391,39.799,-0.0730981
18.62,457.08,1.391,39.776,-0.0700275
18.64,457.45,1.390,39.752,-0.0582106
18.66,457.82,1.389,39.729,-0.0743813
18.67,458.18,1.388,39.704,-0.0541132
18.69,458.55,1.387,39.682,-0.0464024
18.71,458.92,1.386,39.660,-0.0636572
18.73,459.28,1.386,39.639,-0.0398043
18.75,459.65,1.385,39.619,-0.0531418
18.77,460.01,1.384,39.601,-0.0590811
18.78,460.38,1.384,39.581,-0.0529321
18.80,460.75,1.383,39.548,-0.0669643
18.82,461.11,1.382,39.528,-0.0507440
18.84,461.48,1.381,39.513,-0.0405571
18.86,461.85,1.381,39.496,-0.0542697
18.88,462.21,1.380,39.476,-0.0465369
18.89,462.58,1.379,39.451,-0.0297434
18.91,462.95,1.378,39.431,-0.0724450
18.93,463.31,1.378,39.412,-0.0484511
18.95,463.68,1.377,39.394,-0.0268040
18.97,464.04,1.377,39.381,-0.0413153
18.98,464.41,1.376,39.364,-0.0500736
19.00,464.78,1.376,39.346,-0.0476430
19.02,465.14,1.375,39.330,-0.0428048
19.04,465.51,1.374,39.311,-0.0497823
19.06,465.88,1.374,39.298,-0.0506276
19.08,466.24,1.373,39.286,-0.0350558
19.09,466.61,1.373,39.273,-0.0497049
19.11,466.98,1.372,39.254,-0.0308951
19.13,467.34,1.372,39.239,-0.0546855
19.15,467.71,1.371,39.224,-0.0403503
19.17,468.08,1.371,39.209,-0.0482257
19.19,468.44,1.370,39.195,-0.0438264
19.21,468.81,1.370,39.181,-0.0489956
19.22,469.18,1.369,39.150,-0.0303342
19.24,469.54,1.368,39.135,-0.0387123
19.26,469.91,1.368,39.119,-0.0454948
19.28,470.27,1.367,39.105,-0.0421517
19.30,470.64,1.366,39.088,-0.0311957
19.32,471.01,1.366,39.071,-0.0456928
19.33,471.37,1.365,39.057,-0.0356220
19.35,471.74,1.365,39.042,-0.0378420
19.37,472.11,1.364,39.030,-0.0334250
19.39,472.47,1.364,39.012,-0.0523631
19.41,472.84,1.363,38.992,-0.0340170
19.43,473.20,1.363,38.980,-0.0435495
19.44,473.57,1.362,38.962,-0.0332204
19.46,473.94,1.362,38.947,-0.0368569
19.48,474.30,1.361,38.934,-0.0403956
19.50,474.67,1.360,38.905,-0.0892186
19.52,475.04,1.360,38.894,-0.0457878
19.53,475.40,1.359,38.879,-0.0312815
19.55,475.77,1.359,38.862,-0.0580974
19.57,476.13,1.358,38.848,-0.0350645
19.59,476.50,1.357,38.830,-0.0564849
19.61,476.87,1.357,38.813,-0.0443057
19.63,477.23,1.356,38.799,-0.0489760
19.64,477.60,1.356,38.781,-0.0248281
19.66,477.97,1.355,38.766,-0.0337904
19.68,478.33,1.355,38.753,-0.0716774
19.70,478.70,1.354,38.739,-0.0389207
19.72,479.06,1.354,38.718,-0.0422624
19.74,479.43,1.353,38.705,-0.0925706
19.76,479.80,1.352,38.683,-0.0356665
19.77,480.16,1.352,38.666,-0.0523707
19.79,480.53,1.351,38.649,-0.0404128
19.81,480.89,1.351,38.634,-0.0385092
19.83,481.26,1.350,38.621,-0.0581881
19.85,481.63,1.349,38.601,-0.0399303
19.87,481.99,1.349,38.589,-0.0509060
19.88,482.36,1.349,38.575,-0.105846
19.90,482.72,1.348,38.553,-0.0424460
19.92,483.09,1.347,38.537,-0.0361070
19.94,483.46,1.347,38.520,-0.0408530
19.96,483.82,1.346,38.501,-0.0443401
19.98,484.19,1.345,38.483,-0.0401511
19.99,484.55,1.345,38.466,-0.0494178
20.01,484.92,1.344,38.445,-0.0557719
20.03,485.29,1.343,38.426,-0.0688855
20.05,485.65,1.343,38.408,-0.0438601
20.07,486.02,1.342,38.392,-0.0365713
20.08,486.39,1.341,38.369,-0.0593596
20.10,486.75,1.341,38.345,-0.0475929
20.12,487.12,1.340,38.321,-0.0383353
20.14,487.48,1.339,38.301,-0.0550183
20.16,487.85,1.338,38.277,-0.0895019
20.18,488.22,1.337,38.257,-0.0585772
20.19,488.58,1.337,38.240,-0.0494596
20.21,488.95,1.336,38.219,-0.0594934
20.23,489.32,1.335,38.199,-0.0511431
20.25,489.68,1.335,38.178,-0.0617956
20.27,490.05,1.334,38.153,-0.0474234
20.29,490.42,1.333,38.130,-0.0609025
20.31,490.78,1.332,38.110,-0.0530589
20.32,491.15,1.332,38.090,-0.0553822
20.34,491.51,1.331,38.070,-0.0377398
20.36,491.88,1.330,38.046,-0.0688043
20.38,492.25,1.329,38.022,-0.0952826
20.40,492.61,1.328,37.995,-0.0668350
20.42,492.98,1.327,37.970,-0.109766
20.43,493.35,1.326,37.930,-0.0734991
20.45,493.71,1.325,37.907,-0.0589592
20.47,494.08,1.324,37.885,-0.194364
20.49,494.45,1.323,37.843,-0.0504698
20.51,494.81,1.322,37.807,-0.0849679
20.53,495.18,1.321,37.785,-0.0697567
20.54,495.54,1.319,37.735,-0.117484
20.56,495.91,1.319,37.717,-0.0430719
20.58,496.28,1.318,37.694,-0.0757194
20.60,496.64,1.317,37.665,-0.0613303
20.62,497.01,1.316,37.642,-0.0550459
20.63,497.37,1.315,37.612,-0.0430382
20.65,497.74,1.314,37.594,-0.0694980
20.67,498.11,1.313,37.560,-0.0813806
20.69,498.47,1.312,37.530,-0.210380
20.71,498.84,1.310,37.485,-0.0735256
20.73,499.20,1.310,37.461,-0.0723979
20.74,499.57,1.309,37.433,-0.0603211
20.76,499.94,1.308,37.410,-0.0827523
20.78,500.30,1.307,37.376,-0.0777547
20.80,500.67,1.306,37.346,-0.0642659
20.82,501.03,1.305,37.318,-0.0672133
20.84,501.40,1.303,37.286,-0.0880026
20.86,501.77,1.303,37.262,-0.0722960
20.87,502.13,1.301,37.224,-0.0758691
20.89,502.50,1.300,37.190,-0.0559890
20.91,502.86,1.299,37.164,-0.0585064
20.93,503.23,1.298,37.136,-0.0749635
20.95,503.60,1.297,37.107,-0.0698778
20.97,503.96,1.296,37.077,-0.0793936
20.98,504.33,1.295,37.032,-0.0894982
21.00,504.69,1.294,37.001,-0.0751337
21.02,505.06,1.293,36.972,-0.0602365
21.04,505.43,1.291,36.938,-0.143349
21.06,505.79,1.290,36.895,-0.126972
21.08,506.16,1.288,36.855,-0.168658
21.09,506.52,1.287,36.825,-0.104402
21.11,506.89,1.286,36.794,-0.0664907
21.13,507.26,1.285,36.764,-0.0934937
21.15,507.62,1.284,36.721,-0.124267
21.17,507.99,1.283,36.688,-0.0748490
21.18,508.36,1.281,36.655,-0.125940
21.20,508.72,1.280,36.623,-0.0584555
21.22,509.09,1.279,36.593,-0.132040
21.24,509.45,1.278,36.556,-0.130314
21.26,509.82,1.276,36.508,-0.0881179
21.28,510.19,1.275,36.467,-0.0550777
21.29,510.55,1.274,36.445,-0.0406237
21.31,510.92,1.273,36.423,-0.198919
21.33,511.29,1.271,36.366,-0.0845555
21.35,511.65,1.270,36.339,-0.0889101
21.37,512.02,1.269,36.311,-0.0682367
21.39,512.38,1.268,36.283,-0.102388
21.41,512.75,1.267,36.249,-0.0826720
21.42,513.12,1.266,36.223,-0.0722133
21.44,513.48,1.265,36.195,-0.0650229
21.46,513.85,1.264,36.168,-0.0516548
21.48,514.21,1.264,36.146,-0.0689613
21.50,514.58,1.262,36.108,-0.0519437
21.52,514.95,1.262,36.086,-0.0662030
21.53,515.31,1.261,36.063,-0.0743812
21.55,515.68,1.260,36.041,-0.0578370
21.57,516.04,1.259,36.017,-0.0671176
21.59,516.41,1.259,36.000,-0.0377755
21.61,516.78,1.258,35.979,-0.0684162
21.63,517.14,1.257,35.959,-0.0399832
21.64,517.51,1.256,35.926,-0.0920375
21.66,517.88,1.255,35.902,-0.0848290
21.68,518.24,1.254,35.878,-0.0605176
21.70,518.61,1.254,35.859,-0.0397182
21.72,518.97,1.253,35.837,-0.0763406
21.73,519.34,1.252,35.815,-0.0410563
21.75,519.71,1.251,35.795,-0.0695069
21.77,520.07,1.251,35.774,-0.0565452
21.79,520.44,1.250,35.754,-0.0340954
21.81,520.80,1.249,35.733,-0.0715826
21.83,521.17,1.248,35.710,-0.0713188
21.84,521.54,1.248,35.688,-0.0449169
21.86,521.90,1.247,35.668,-0.0470561
21.88,522.27,1.246,35.639,-0.0696472
21.90,522.63,1.245,35.617,-0.0618694
21.92,523.00,1.244,35.594,-0.0716075
21.94,523.37,1.243,35.568,-0.0617205
21.96,523.73,1.243,35.546,-0.0577101
21.97,524.10,1.242,35.516,-0.0700344
21.99,524.46,1.241,35.495,-0.0602982
22.01,524.83,1.240,35.472,-0.0672018
22.03,525.20,1.239,35.445,-0.0644143
22.05,525.56,1.238,35.423,-0.0895560
22.07,525.93,1.237,35.371,-0.0390220
22.08,526.29,1.236,35.352,-0.0568413
22.10,526.66,1.235,35.328,-0.0650309
22.12,527.03,1.234,35.299,-0.0553061
22.14,527.39,1.233,35.275,-0.0757504
22.16,527.76,1.232,35.252,-0.0629352
22.18,528.13,1.232,35.229,-0.0616181
22.19,528.49,1.231,35.208,-0.0620989
22.21,528.86,1.230,35.184,-0.0918470
22.23,529.23,1.228,35.133,-0.0751985
22.25,529.59,1.227,35.110,-0.108670
22.27,529.96,1.226,35.071,-0.0592233
22.28,530.32,1.225,35.047,-0.0774403
22.30,530.69,1.224,35.018,-0.167242
22.32,531.06,1.222,34.965,-0.0628439
22.34,531.42,1.222,34.943,-0.0967296
22.36,531.79,1.221,34.915,-0.0708325
22.38,532.15,1.220,34.893,-0.0681732
22.39,532.52,1.219,34.872,-0.0584174
22.41,532.89,1.218,34.841,-0.141869
22.43,533.25,1.216,34.787,-0.0731375
22.45,533.62,1.215,34.762,-0.0903088
22.47,533.98,1.214,34.737,-0.0804523
22.49,534.35,1.213,34.709,-0.0849197
22.51,534.72,1.212,34.683,-0.0705390
22.52,535.08,1.211,34.653,-0.0703467
22.54,535.45,1.210,34.623,-0.0594696
22.56,535.81,1.209,34.577,-0.0854853
22.58,536.18,1.208,34.550,-0.0958103
22.60,536.54,1.207,34.520,-0.0701575
22.62,536.91,1.205,34.479,-0.152968
22.63,537.28,1.204,34.447,-0.0788303
22.65,537.64,1.203,34.418,-0.0736697
22.67,538.01,1.201,34.351,-0.245197
22.69,538.37,1.200,34.322,-0.0808099
22.71,538.74,1.199,34.294,-0.0867507
22.73,539.11,1.198,34.263,-0.0717503
22.74,539.47,1.196,34.221,-0.184917
22.76,539.84,1.195,34.194,-0.110603
22.78,540.20,1.194,34.156,-0.0596330
22.80,540.57,1.192,34.109,-0.0797248
22.82,540.93,1.191,34.076,-0.0819966
22.83,541.30,1.190,34.048,-0.0633945
22.85,541.67,1.189,34.012,-0.136881
22.87,542.03,1.188,33.974,-0.0917927
22.89,542.40,1.187,33.943,-0.0722844
22.91,542.76,1.186,33.915,-0.0750344
22.93,543.13,1.184,33.871,-0.118774
22.94,543.50,1.183,33.840,-0.0876606
22.96,543.86,1.182,33.807,-0.0801950
22.98,544.23,1.180,33.758,-0.0842666
23.00,544.59,1.179,33.730,-0.102793
23.02,544.96,1.177,33.672,-0.0786630
23.04,545.33,1.176,33.643,-0.0735075
23.06,545.69,1.175,33.613,-0.0670022
23.07,546.06,1.173,33.567,-0.139178
23.09,546.43,1.172,33.534,-0.0731478
23.11,546.79,1.170,33.476,-0.0929702
23.13,547.16,1.169,33.441,-0.0827294
23.15,547.52,1.168,33.411,-0.0867087
23.17,547.89,1.167,33.381,-0.0907813
23.18,548.26,1.166,33.344,-0.101184
23.20,548.62,1.163,33.279,-0.0818295
23.22,548.99,1.162,33.237,-0.0807363
23.24,549.35,1.161,33.208,-0.0970410
23.26,549.72,1.160,33.174,-0.134148
23.28,550.08,1.159,33.139,-0.128603
23.29,550.45,1.157,33.100,-0.0875689
23.31,550.82,1.156,33.066,-0.0927159
23.33,551.18,1.154,33.018,-0.0999083
23.35,551.55,1.153,32.989,-0.0882788
23.37,551.91,1.152,32.960,-0.0734210
23.38,552.28,1.151,32.924,-0.0789297
23.40,552.65,1.150,32.893,-0.110150
23.42,553.01,1.148,32.831,-0.138111
23.44,553.38,1.147,32.799,-0.0889764
23.46,553.74,1.145,32.752,-0.215174
23.48,554.11,1.144,32.711,-0.147913
23.49,554.48,1.142,32.666,-0.0793816
23.51,554.84,1.141,32.628,-0.0899739
23.53,555.21,1.139,32.587,-0.105647
23.55,555.57,1.138,32.550,-0.0980398
23.57,555.94,1.137,32.514,-0.0853819
23.59,556.31,1.136,32.482,-0.0971925
23.61,556.67,1.134,32.427,-0.121159
23.62,557.04,1.132,32.383,-0.0962718
23.64,557.41,1.131,32.352,-0.0944151
23.66,557.77,1.129,32.308,-0.112397
23.68,558.14,1.128,32.265,-0.162536
23.70,558.50,1.127,32.229,-0.0997114
23.72,558.87,1.125,32.180,-0.0677534
23.73,559.23,1.124,32.140,-0.0839794
23.75,559.60,1.122,32.101,-0.153856
23.77,559.97,1.121,32.070,-0.150041
23.79,560.33,1.119,32.009,-0.106691
23.81,560.70,1.118,31.975,-0.0991903
23.83,561.07,1.117,31.938,-0.192300
23.84,561.43,1.115,31.896,-0.0724794
23.86,561.80,1.114,31.858,-0.0496801
23.88,562.16,1.113,31.829,-0.116318
23.90,562.53,1.111,31.774,-0.112070
23.92,562.90,1.109,31.711,-0.0718397
23.93,563.26,1.108,31.680,-0.0876273
23.95,563.63,1.106,31.632,-0.273989
23.97,563.99,1.104,31.591,-0.0737844
23.99,564.36,1.103,31.561,-0.0806809
24.01,564.72,1.101,31.504,-0.0674599
24.03,565.09,1.100,31.473,-0.0696617
24.04,565.46,1.099,31.425,-0.107368
24.06,565.82,1.097,31.390,-0.0701746
24.08,566.19,1.096,31.349,-0.159206
24.10,566.55,1.095,31.309,-0.219142
24.12,566.92,1.093,31.259,-0.0624365
24.14,567.29,1.092,31.227,-0.0749590
24.16,567.65,1.090,31.182,-0.102362
24.17,568.02,1.089,31.154,-0.0807059
24.19,568.38,1.087,31.081,-0.0884206
24.21,568.75,1.086,31.052,-0.0921688
24.23,569.12,1.084,31.010,-0.0747782
24.25,569.48,1.083,30.981,-0.0948911
24.27,569.85,1.082,30.947,-0.0748093
24.28,570.21,1.081,30.918,-0.0782104
24.30,570.58,1.080,30.894,-0.0755640
24.32,570.95,1.078,30.837,-0.138630
24.34,571.31,1.077,30.804,-0.131892
24.36,571.68,1.076,30.769,-0.0801861
24.38,572.04,1.074,30.721,-0.170898
24.39,572.41,1.072,30.671,-0.0610430
24.41,572.77,1.071,30.629,-0.137024
24.43,573.14,1.069,30.592,-0.0980175
24.45,573.51,1.068,30.542,-0.0859542
24.47,573.87,1.067,30.518,-0.0812901
24.48,574.24,1.066,30.479,-0.0893876
24.50,574.60,1.064,30.443,-0.0712901
24.52,574.97,1.063,30.395,-0.0800400
24.54,575.33,1.061,30.359,-0.130642
24.56,575.70,1.060,30.322,-0.120426
24.58,576.07,1.059,30.286,-0.0918711
24.59,576.43,1.057,30.245,-0.185528
24.61,576.80,1.056,30.205,-0.0737721
24.63,577.16,1.054,30.156,-0.101494
24.65,577.53,1.053,30.127,-0.127942
24.67,577.90,1.052,30.081,-0.0655374
24.69,578.26,1.051,30.050,-0.149432
24.71,578.63,1.049,30.006,-0.0720367
24.72,578.99,1.047,29.960,-0.101634
24.74,579.36,1.046,29.928,-0.0670872
24.76,579.73,1.044,29.875,-0.159901
24.78,580.09,1.043,29.848,-0.0733267
24.80,580.46,1.042,29.810,-0.0879989
24.82,580.82,1.041,29.779,-0.0933021
24.83,581.19,1.040,29.741,-0.0505720
24.85,581.56,1.039,29.711,-0.0999453
24.87,581.92,1.036,29.648,-0.0830365
24.89,582.29,1.035,29.611,-0.0581091
24.91,582.65,1.034,29.589,-0.0586017
24.93,583.02,1.033,29.560,-0.0743406
24.94,583.38,1.031,29.493,-0.0694400
24.96,583.75,1.030,29.461,-0.114951
24.98,584.12,1.028,29.415,-0.338330
25.00,584.48,1.027,29.370,-0.0899215
25.02,584.85,1.026,29.344,-0.217443
25.03,585.21,1.024,29.291,-0.0670109
25.05,585.58,1.023,29.265,-0.155087
25.07,585.94,1.022,29.229,-0.0555860
25.09,586.31,1.021,29.202,-0.0515322
25.11,586.68,1.020,29.165,-0.0747362
25.13,587.04,1.019,29.139,-0.0726058
25.14,587.41,1.018,29.112,-0.0732585
25.16,587.77,1.016,29.065,-0.0779762
25.18,588.14,1.015,29.029,-0.0777992
25.20,588.51,1.014,29.006,-0.0980283
25.22,588.87,1.012,28.951,-0.219233
25.24,589.24,1.011,28.922,-0.0794242
25.26,589.60,1.010,28.891,-0.0748388
25.27,589.97,1.009,28.855,-0.0720024
25.29,590.33,1.008,28.829,-0.0748419
25.31,590.70,1.007,28.793,-0.107712
25.33,591.07,1.005,28.756,-0.152514
25.35,591.43,1.004,28.723,-0.103394
25.37,591.80,1.002,28.675,-0.0691055
25.38,592.16,1.001,28.627,-0.0574339
25.40,592.53,1.000,28.592,-0.0926434
25.42,592.89,0.999,28.567,-0.0698139
25.44,593.26,0.997,28.530,-0.115485
25.46,593.63,0.996,28.498,-0.105298
25.48,593.99,0.995,28.456,-0.204333
25.49,594.36,0.994,28.423,-0.0758618
25.51,594.72,0.992,28.364,-0.0680906
25.53,595.09,0.991,28.335,-0.0680333
25.55,595.46,0.989,28.282,-0.0541191
25.57,595.82,0.987,28.234,-0.270322
25.57,595.89,0.987,28.226,-0.112736