File: instrument_data/TGA/Co(phen)2(SCN)2 electromagnet RT-325-10011142022(1).csv
Filename,Co(phen)2(SCN)2 electromagnet RT-325-10011142022(1)
Instrument name,5500-0566 (192.168.10.4)
Operator,Adam K
rundate,11/14/2022
Sample name,Co(phen)2(SCN)2 electromagnet RT-325-100
proceduresegments,Equilibrate 120.00 °C; Isothermal 1.0 min; Electromagnet On 60.0 %; Equilibrate 120.00 °C; Ramp 5.00 °C/min to 325.00 °C; Ramp 5.00 °C/min to 100.00 °C; Equilibrate 100.00 °C
[File Parameters]
Run date,11/14/2022 2:53:18 PM
Trios version,5.3.0.48151
Original File Name,C:\ProgramData\TA Instruments\TRIOS\Data\CH302_B3_22_AK\Co(phen)2(SCN)2 electromagnet RT-325-10011142022(1).tri
Current File Name,C:/ProgramData/TA Instruments/TRIOS/Data/CH302_B3_22_AK/Co(phen)2(SCN)2 electromagnet RT-325-10011142022(1).tri
User at run start,CH-CBWNNF3-0721\ChemLocal
[Procedure]
Procedure Name,
Sample Name,Co(phen)2(SCN)2 electromagnet RT-325-100
Pan Number,2
Sample Mass,11.478 mg
Pan Type,Aluminum
Comments,
Project Name,Spin Crossover
Operator,Adam K
Test,Custom
Skip Weight Stabilization,False
Sample mass pre-weigh,Not Available
Stop on Gas Flow Error,No
[Signal List]
Signal #1,Time (min)
Signal #2,Temperature (°C)
Signal #3,Weight (mg)
Signal #4,Temperature Difference (°C)
Signal #5,Sample Purge (mL/min)
Signal #6,Balance Purge (mL/min)
Signal #7,Set Point Temperature (°C)
Signal #8,Power Delivered (W)
Signal #9,Ramp Rate (°C/min)
[Configuration]
Company Name,localcc
Instrument Name,5500-0566
Instrument Type,TGA5500
Serial Number,5500-0566
IP,192.168.10.4
Location of Instrument,Olin Hall Rm 364
DisplayType,TianmaV2
Sample Interval ,0.1 s/pt
Gas 1,Nitrogen
Gas 2,Air
Selected Gas Channel,1
MTGA HiRes Licensed,Yes
[Versions]
Common IDD Version,1
Cortex Version,VER 2.1.2.60
Driver,5.0.0.6
GDM Version,1.2.1.2
TouchscreenVersion,1.0.3.1795
PCU Version,1.2.0.15
Transducer Version,1.1.0.32
[Experiment Logs]
Experiment Log Entry # 1,Equilibrate Segment 120 (C) Started
Experiment Log Entry # 3,Isothermal Segment 1 min started
Experiment Log Entry # 5,"Curie Magnet Segment enable 1, 60 %"
Experiment Log Entry # 7,Equilibrate Segment 120 (C) Started
Experiment Log Entry # 9,Ramp Segment 5 C/min to 325 C Started
Experiment Log Entry # 11,Ending Experiment because user stopped
Experiment Log Entry # 13,Ending Experiment
[Method Log]
Method Log Entry # 1,Equilibrate 120 °C
Method Log Entry # 2,Isothermal 1 minutes
Method Log Entry # 3,Electromagnet On 60 %
Method Log Entry # 4,Equilibrate 120 °C
Method Log Entry # 5,(Ramp 3071) Ramp 5 °C/minute to 325 °C
[Weight Calibration]
Date Applied,7/20/2022 10:21:44 AM
Empty Pan Number,23
Empty Pan Weight,341.358 mg
Low Reference Weight Pan Number,24
Low Reference Weight,442.546 mg
High Reference Weight Pan Number,25
High Reference Weight,"1,243.774 mg"
Low Gain Meter Reading,9.9772E-006 mg/count
High Gain Meter Reading,7.9459E-005 mg/count
Low Meter Offset,31.8759 mg
High Meter Offset,613.7978 mg
[Curie Calibration]
Date Applied,8/11/2021 12:40:46 PM
Description,From 256.990 °C to 456.990 °C at 20.000°C/min
Gas Type,Nitrogen
Pan Type,Platinum (100 uL)
Source Files 1,C:\ProgramData\TA Instruments\TRIOS\Data\Nickel Calibration.tri
Source Files 2,C:\ProgramData\TA Instruments\TRIOS\Data\Alumel Calibration.tri
Measured 1,158.9083
Known 1,154.16
Measured 2,358.1255
Known 2,356.99
[step]
Isothermal 1.0 min
Time,Temperature,Weight,Weight
min,°C,mg,%
0.00,120.12,11.417,99.472
0.00,120.12,11.417,99.472
0.00,120.12,11.417,99.472
0.01,120.12,11.417,99.472
0.01,120.13,11.417,99.471
0.01,120.13,11.417,99.471
0.01,120.13,11.417,99.471
0.01,120.13,11.417,99.471
0.01,120.13,11.417,99.471
0.01,120.13,11.417,99.471
0.02,120.13,11.417,99.471
0.02,120.13,11.417,99.471
0.02,120.14,11.417,99.471
0.02,120.14,11.417,99.471
0.02,120.14,11.417,99.471
0.03,120.14,11.417,99.471
0.03,120.14,11.417,99.471
0.03,120.14,11.417,99.471
0.03,120.14,11.417,99.471
0.03,120.14,11.417,99.471
0.03,120.15,11.417,99.471
0.03,120.15,11.417,99.471
0.04,120.15,11.417,99.471
0.04,120.15,11.417,99.471
0.04,120.15,11.417,99.471
0.04,120.15,11.417,99.471
0.04,120.15,11.417,99.471
0.05,120.15,11.417,99.471
0.05,120.15,11.417,99.471
0.05,120.16,11.417,99.470
0.05,120.16,11.417,99.471
0.05,120.16,11.417,99.471
0.05,120.16,11.417,99.471
0.05,120.16,11.417,99.470
0.06,120.16,11.417,99.470
0.06,120.16,11.417,99.471
0.06,120.16,11.417,99.470
0.06,120.17,11.417,99.470
0.06,120.17,11.417,99.470
0.07,120.17,11.417,99.471
0.07,120.17,11.417,99.471
0.07,120.17,11.417,99.471
0.07,120.17,11.417,99.470
0.07,120.17,11.417,99.470
0.07,120.17,11.417,99.470
0.08,120.17,11.417,99.470
0.08,120.17,11.417,99.470
0.08,120.18,11.417,99.470
0.08,120.18,11.417,99.470
0.08,120.18,11.417,99.470
0.08,120.18,11.417,99.470
0.08,120.18,11.417,99.470
0.09,120.18,11.417,99.470
0.09,120.18,11.417,99.470
0.09,120.18,11.417,99.470
0.09,120.18,11.417,99.470
0.09,120.19,11.417,99.470
0.09,120.19,11.417,99.470
0.10,120.19,11.417,99.470
0.10,120.19,11.417,99.470
0.10,120.19,11.417,99.470
0.10,120.19,11.417,99.470
0.10,120.19,11.417,99.470
0.11,120.19,11.417,99.470
0.11,120.19,11.417,99.470
0.11,120.19,11.417,99.470
0.11,120.20,11.417,99.470
0.11,120.20,11.417,99.470
0.11,120.20,11.417,99.470
0.12,120.20,11.417,99.470
0.12,120.20,11.417,99.470
0.12,120.20,11.417,99.469
0.12,120.20,11.417,99.469
0.12,120.20,11.417,99.469
0.12,120.20,11.417,99.469
0.13,120.20,11.417,99.469
0.13,120.20,11.417,99.469
0.13,120.21,11.417,99.469
0.13,120.21,11.417,99.469
0.13,120.21,11.417,99.469
0.13,120.21,11.417,99.469
0.14,120.21,11.417,99.469
0.14,120.21,11.417,99.469
0.14,120.21,11.417,99.469
0.14,120.21,11.417,99.469
0.14,120.21,11.417,99.469
0.14,120.21,11.417,99.469
0.14,120.21,11.417,99.469
0.15,120.22,11.417,99.469
0.15,120.22,11.417,99.469
0.15,120.22,11.417,99.469
0.15,120.22,11.417,99.469
0.15,120.22,11.417,99.469
0.16,120.22,11.417,99.469
0.16,120.22,11.417,99.469
0.16,120.22,11.417,99.469
0.16,120.22,11.417,99.469
0.16,120.22,11.417,99.469
0.16,120.22,11.417,99.469
0.16,120.23,11.417,99.469
0.17,120.23,11.417,99.469
0.17,120.23,11.417,99.469
0.17,120.23,11.417,99.469
0.17,120.23,11.417,99.469
0.17,120.23,11.417,99.469
0.18,120.23,11.417,99.469
0.18,120.23,11.417,99.469
0.18,120.23,11.417,99.469
0.18,120.23,11.417,99.469
0.18,120.23,11.417,99.469
0.18,120.23,11.417,99.469
0.19,120.24,11.417,99.469
0.19,120.24,11.417,99.469
0.19,120.24,11.417,99.469
0.19,120.24,11.417,99.469
0.19,120.24,11.417,99.469
0.19,120.24,11.417,99.469
0.19,120.24,11.417,99.469
0.20,120.24,11.417,99.469
0.20,120.24,11.417,99.469
0.20,120.24,11.417,99.469
0.20,120.24,11.417,99.469
0.20,120.24,11.417,99.469
0.21,120.25,11.417,99.468
0.21,120.25,11.417,99.468
0.21,120.25,11.417,99.468
0.21,120.25,11.417,99.468
0.21,120.25,11.417,99.468
0.21,120.25,11.417,99.468
0.21,120.25,11.417,99.469
0.22,120.25,11.417,99.468
0.22,120.25,11.417,99.468
0.22,120.25,11.417,99.468
0.22,120.25,11.417,99.468
0.22,120.25,11.417,99.468
0.23,120.25,11.417,99.468
0.23,120.26,11.417,99.468
0.23,120.26,11.417,99.468
0.23,120.26,11.417,99.468
0.23,120.26,11.417,99.468
0.23,120.26,11.417,99.468
0.24,120.26,11.417,99.468
0.24,120.26,11.417,99.468
0.24,120.26,11.417,99.468
0.24,120.26,11.417,99.468
0.24,120.26,11.417,99.468
0.24,120.26,11.417,99.468
0.24,120.26,11.417,99.468
0.25,120.26,11.417,99.468
0.25,120.26,11.417,99.468
0.25,120.27,11.417,99.468
0.25,120.27,11.417,99.468
0.25,120.27,11.417,99.468
0.26,120.27,11.417,99.468
0.26,120.27,11.417,99.468
0.26,120.27,11.417,99.468
0.26,120.27,11.417,99.468
0.26,120.27,11.417,99.468
0.26,120.27,11.417,99.468
0.26,120.27,11.417,99.468
0.27,120.27,11.417,99.468
0.27,120.27,11.417,99.468
0.27,120.27,11.417,99.468
0.27,120.27,11.417,99.468
0.27,120.27,11.417,99.468
0.28,120.28,11.417,99.468
0.28,120.28,11.417,99.468
0.28,120.28,11.417,99.468
0.28,120.28,11.417,99.468
0.28,120.28,11.417,99.468
0.28,120.28,11.417,99.468
0.29,120.28,11.417,99.468
0.29,120.28,11.417,99.468
0.29,120.28,11.417,99.468
0.29,120.28,11.417,99.468
0.29,120.28,11.416,99.468
0.29,120.28,11.416,99.468
0.30,120.28,11.416,99.468
0.30,120.28,11.416,99.468
0.30,120.28,11.416,99.468
0.30,120.29,11.416,99.468
0.30,120.29,11.416,99.468
0.30,120.29,11.416,99.468
0.30,120.29,11.416,99.468
0.31,120.29,11.416,99.468
0.31,120.29,11.416,99.468
0.31,120.29,11.416,99.468
0.31,120.29,11.416,99.468
0.31,120.29,11.416,99.468
0.31,120.29,11.416,99.467
0.32,120.29,11.416,99.467
0.32,120.29,11.416,99.467
0.32,120.29,11.416,99.467
0.32,120.29,11.416,99.468
0.32,120.29,11.416,99.468
0.33,120.29,11.416,99.468
0.33,120.29,11.416,99.467
0.33,120.30,11.416,99.467
0.33,120.30,11.416,99.467
0.33,120.30,11.416,99.467
0.33,120.30,11.416,99.467
0.34,120.30,11.416,99.467
0.34,120.30,11.416,99.467
0.34,120.30,11.416,99.467
0.34,120.30,11.416,99.467
0.34,120.30,11.416,99.467
0.34,120.30,11.416,99.467
0.35,120.30,11.416,99.467
0.35,120.30,11.416,99.467
0.35,120.30,11.416,99.467
0.35,120.30,11.416,99.467
0.35,120.30,11.416,99.467
0.35,120.30,11.416,99.467
0.35,120.30,11.416,99.467
0.36,120.31,11.416,99.467
0.36,120.31,11.416,99.467
0.36,120.31,11.416,99.467
0.36,120.31,11.416,99.467
0.36,120.31,11.416,99.467
0.36,120.31,11.416,99.467
0.37,120.31,11.416,99.467
0.37,120.31,11.416,99.467
0.37,120.31,11.416,99.467
0.37,120.31,11.416,99.467
0.37,120.31,11.416,99.467
0.38,120.31,11.416,99.467
0.38,120.31,11.416,99.467
0.38,120.31,11.416,99.467
0.38,120.31,11.416,99.467
0.38,120.31,11.416,99.467
0.38,120.31,11.416,99.467
0.39,120.31,11.416,99.467
0.39,120.31,11.416,99.467
0.39,120.31,11.416,99.467
0.39,120.32,11.416,99.467
0.39,120.32,11.416,99.467
0.39,120.32,11.416,99.467
0.40,120.32,11.416,99.467
0.40,120.32,11.416,99.467
0.40,120.32,11.416,99.467
0.40,120.32,11.416,99.467
0.40,120.32,11.416,99.467
0.40,120.32,11.416,99.467
0.40,120.32,11.416,99.467
0.41,120.32,11.416,99.467
0.41,120.32,11.416,99.467
0.41,120.32,11.416,99.466
0.41,120.32,11.416,99.466
0.41,120.32,11.416,99.466
0.41,120.32,11.416,99.466
0.42,120.32,11.416,99.466
0.42,120.32,11.416,99.466
0.42,120.32,11.416,99.466
0.42,120.32,11.416,99.466
0.42,120.32,11.416,99.466
0.43,120.33,11.416,99.466
0.43,120.33,11.416,99.466
0.43,120.33,11.416,99.466
0.43,120.33,11.416,99.466
0.43,120.33,11.416,99.466
0.43,120.33,11.416,99.466
0.44,120.33,11.416,99.466
0.44,120.33,11.416,99.466
0.44,120.33,11.416,99.466
0.44,120.33,11.416,99.466
0.44,120.33,11.416,99.466
0.44,120.33,11.416,99.466
0.45,120.33,11.416,99.466
0.45,120.33,11.416,99.466
0.45,120.33,11.416,99.466
0.45,120.33,11.416,99.466
0.45,120.33,11.416,99.466
0.45,120.33,11.416,99.466
0.45,120.33,11.416,99.466
0.46,120.33,11.416,99.466
0.46,120.33,11.416,99.466
0.46,120.33,11.416,99.466
0.46,120.33,11.416,99.466
0.46,120.33,11.416,99.467
0.46,120.34,11.416,99.467
0.47,120.34,11.416,99.466
0.47,120.34,11.416,99.466
0.47,120.34,11.416,99.466
0.47,120.34,11.416,99.466
0.47,120.34,11.416,99.466
0.48,120.34,11.416,99.466
0.48,120.34,11.416,99.466
0.48,120.34,11.416,99.466
0.48,120.34,11.416,99.466
0.48,120.34,11.416,99.466
0.48,120.34,11.416,99.466
0.49,120.34,11.416,99.466
0.49,120.34,11.416,99.466
0.49,120.34,11.416,99.466
0.49,120.34,11.416,99.466
0.49,120.34,11.416,99.466
0.49,120.34,11.416,99.466
0.50,120.34,11.416,99.466
0.50,120.34,11.416,99.466
0.50,120.34,11.416,99.466
0.50,120.34,11.416,99.466
0.50,120.34,11.416,99.466
0.50,120.34,11.416,99.466
0.50,120.34,11.416,99.466
0.51,120.34,11.416,99.466
0.51,120.34,11.416,99.466
0.51,120.35,11.416,99.466
0.51,120.35,11.416,99.466
0.51,120.35,11.416,99.466
0.51,120.35,11.416,99.466
0.52,120.35,11.416,99.466
0.52,120.35,11.416,99.466
0.52,120.35,11.416,99.466
0.52,120.35,11.416,99.466
0.52,120.35,11.416,99.466
0.53,120.35,11.416,99.466
0.53,120.35,11.416,99.466
0.53,120.35,11.416,99.466
0.53,120.35,11.416,99.465
0.53,120.35,11.416,99.465
0.53,120.35,11.416,99.465
0.53,120.35,11.416,99.466
0.54,120.35,11.416,99.466
0.54,120.35,11.416,99.466
0.54,120.35,11.416,99.466
0.54,120.35,11.416,99.466
0.54,120.35,11.416,99.466
0.55,120.35,11.416,99.466
0.55,120.35,11.416,99.466
0.55,120.35,11.416,99.466
0.55,120.35,11.416,99.466
0.55,120.35,11.416,99.466
0.55,120.35,11.416,99.466
0.55,120.35,11.416,99.466
0.56,120.35,11.416,99.466
0.56,120.35,11.416,99.466
0.56,120.36,11.416,99.466
0.56,120.36,11.416,99.466
0.56,120.36,11.416,99.466
0.57,120.36,11.416,99.466
0.57,120.36,11.416,99.466
0.57,120.36,11.416,99.466
0.57,120.36,11.416,99.466
0.57,120.36,11.416,99.466
0.57,120.36,11.416,99.466
0.58,120.36,11.416,99.466
0.58,120.36,11.416,99.466
0.58,120.36,11.416,99.466
0.58,120.36,11.416,99.466
0.58,120.36,11.416,99.466
0.58,120.36,11.416,99.466
0.58,120.36,11.416,99.466
0.59,120.36,11.416,99.466
0.59,120.36,11.416,99.466
0.59,120.36,11.416,99.466
0.59,120.36,11.416,99.466
0.59,120.36,11.416,99.466
0.60,120.36,11.416,99.466
0.60,120.36,11.416,99.465
0.60,120.36,11.416,99.465
0.60,120.36,11.416,99.466
0.60,120.36,11.416,99.466
0.60,120.36,11.416,99.466
0.60,120.36,11.416,99.465
0.61,120.36,11.416,99.465
0.61,120.36,11.416,99.465
0.61,120.36,11.416,99.465
0.61,120.36,11.416,99.465
0.61,120.36,11.416,99.465
0.62,120.36,11.416,99.465
0.62,120.36,11.416,99.465
0.62,120.36,11.416,99.465
0.62,120.36,11.416,99.465
0.62,120.36,11.416,99.465
0.62,120.37,11.416,99.465
0.63,120.37,11.416,99.465
0.63,120.37,11.416,99.465
0.63,120.37,11.416,99.465
0.63,120.37,11.416,99.465
0.63,120.37,11.416,99.465
0.63,120.37,11.416,99.465
0.63,120.37,11.416,99.465
0.64,120.37,11.416,99.464
0.64,120.37,11.416,99.465
0.64,120.37,11.416,99.465
0.64,120.37,11.416,99.465
0.64,120.37,11.416,99.465
0.65,120.37,11.416,99.465
0.65,120.37,11.416,99.465
0.65,120.37,11.416,99.465
0.65,120.37,11.416,99.464
0.65,120.37,11.416,99.464
0.65,120.37,11.416,99.464
0.65,120.37,11.416,99.464
0.66,120.37,11.416,99.464
0.66,120.37,11.416,99.464
0.66,120.37,11.416,99.464
0.66,120.37,11.416,99.464
0.66,120.37,11.416,99.464
0.67,120.37,11.416,99.464
0.67,120.37,11.416,99.464
0.67,120.37,11.416,99.464
0.67,120.37,11.416,99.464
0.67,120.37,11.416,99.464
0.67,120.37,11.416,99.464
0.68,120.37,11.416,99.464
0.68,120.37,11.416,99.464
0.68,120.37,11.416,99.464
0.68,120.37,11.416,99.464
0.68,120.37,11.416,99.464
0.68,120.37,11.416,99.464
0.68,120.37,11.416,99.464
0.69,120.37,11.416,99.464
0.69,120.37,11.416,99.464
0.69,120.37,11.416,99.464
0.69,120.37,11.416,99.464
0.69,120.37,11.416,99.464
0.70,120.37,11.416,99.464
0.70,120.37,11.416,99.464
0.70,120.37,11.416,99.464
0.70,120.37,11.416,99.464
0.70,120.37,11.416,99.464
0.70,120.37,11.416,99.464
0.70,120.37,11.416,99.464
0.71,120.37,11.416,99.464
0.71,120.37,11.416,99.464
0.71,120.37,11.416,99.464
0.71,120.37,11.416,99.464
0.71,120.37,11.416,99.464
0.72,120.38,11.416,99.464
0.72,120.38,11.416,99.463
0.72,120.38,11.416,99.463
0.72,120.38,11.416,99.463
0.72,120.38,11.416,99.463
0.72,120.38,11.416,99.463
0.73,120.38,11.416,99.463
0.73,120.38,11.416,99.464
0.73,120.38,11.416,99.464
0.73,120.38,11.416,99.464
0.73,120.38,11.416,99.464
0.73,120.38,11.416,99.464
0.73,120.38,11.416,99.464
0.74,120.38,11.416,99.464
0.74,120.38,11.416,99.464
0.74,120.38,11.416,99.463
0.74,120.38,11.416,99.463
0.74,120.38,11.416,99.463
0.75,120.38,11.416,99.463
0.75,120.38,11.416,99.463
0.75,120.38,11.416,99.463
0.75,120.38,11.416,99.463
0.75,120.38,11.416,99.463
0.75,120.38,11.416,99.463
0.75,120.38,11.416,99.463
0.76,120.38,11.416,99.463
0.76,120.38,11.416,99.463
0.76,120.38,11.416,99.463
0.76,120.38,11.416,99.463
0.76,120.38,11.416,99.463
0.77,120.38,11.416,99.463
0.77,120.38,11.416,99.463
0.77,120.38,11.416,99.463
0.77,120.38,11.416,99.463
0.77,120.38,11.416,99.463
0.77,120.38,11.416,99.463
0.78,120.38,11.416,99.463
0.78,120.38,11.416,99.463
0.78,120.38,11.416,99.463
0.78,120.38,11.416,99.463
0.78,120.38,11.416,99.463
0.78,120.38,11.416,99.463
0.78,120.38,11.416,99.463
0.79,120.38,11.416,99.463
0.79,120.38,11.416,99.463
0.79,120.38,11.416,99.463
0.79,120.38,11.416,99.463
0.79,120.38,11.416,99.463
0.80,120.38,11.416,99.463
0.80,120.38,11.416,99.462
0.80,120.38,11.416,99.462
0.80,120.38,11.416,99.462
0.80,120.38,11.416,99.462
0.80,120.38,11.416,99.462
0.80,120.38,11.416,99.462
0.81,120.38,11.416,99.462
0.81,120.38,11.416,99.462
0.81,120.38,11.416,99.462
0.81,120.38,11.416,99.462
0.81,120.38,11.416,99.462
0.82,120.38,11.416,99.462
0.82,120.38,11.416,99.462
0.82,120.38,11.416,99.462
0.82,120.38,11.416,99.462
0.82,120.38,11.416,99.462
0.82,120.38,11.416,99.462
0.83,120.38,11.416,99.462
0.83,120.38,11.416,99.462
0.83,120.38,11.416,99.462
0.83,120.38,11.416,99.462
0.83,120.38,11.416,99.462
0.83,120.38,11.416,99.462
0.83,120.38,11.416,99.462
0.84,120.38,11.416,99.462
0.84,120.38,11.416,99.462
0.84,120.38,11.416,99.462
0.84,120.38,11.416,99.462
0.84,120.38,11.416,99.462
0.85,120.38,11.416,99.462
0.85,120.38,11.416,99.462
0.85,120.38,11.416,99.462
0.85,120.38,11.416,99.462
0.85,120.38,11.416,99.462
0.85,120.38,11.416,99.462
0.85,120.38,11.416,99.462
0.86,120.38,11.416,99.462
0.86,120.38,11.416,99.462
0.86,120.38,11.416,99.462
0.86,120.38,11.416,99.462
0.86,120.38,11.416,99.462
0.87,120.38,11.416,99.462
0.87,120.38,11.416,99.462
0.87,120.38,11.416,99.462
0.87,120.38,11.416,99.462
0.87,120.38,11.416,99.462
0.87,120.38,11.416,99.462
0.88,120.38,11.416,99.462
0.88,120.38,11.416,99.462
0.88,120.38,11.416,99.462
0.88,120.38,11.416,99.462
0.88,120.38,11.416,99.462
0.88,120.38,11.416,99.462
0.88,120.38,11.416,99.462
0.89,120.38,11.416,99.462
0.89,120.38,11.416,99.462
0.89,120.38,11.416,99.462
0.89,120.38,11.416,99.462
0.89,120.38,11.416,99.462
0.90,120.38,11.416,99.462
0.90,120.38,11.416,99.462
0.90,120.38,11.416,99.462
0.90,120.38,11.416,99.462
0.90,120.38,11.416,99.462
0.90,120.38,11.416,99.462
0.90,120.38,11.416,99.462
0.91,120.38,11.416,99.462
0.91,120.38,11.416,99.462
0.91,120.38,11.416,99.462
0.91,120.38,11.416,99.462
0.91,120.38,11.416,99.462
0.92,120.38,11.416,99.462
0.92,120.38,11.416,99.462
0.92,120.38,11.416,99.462
0.92,120.38,11.416,99.462
0.92,120.38,11.416,99.462
0.92,120.38,11.416,99.462
0.93,120.38,11.416,99.462
0.93,120.38,11.416,99.462
0.93,120.38,11.416,99.462
0.93,120.38,11.416,99.462
0.93,120.38,11.416,99.462
0.93,120.38,11.416,99.462
0.93,120.38,11.416,99.462
0.94,120.38,11.416,99.462
0.94,120.38,11.416,99.462
0.94,120.38,11.416,99.462
0.94,120.38,11.416,99.462
0.94,120.38,11.416,99.462
0.95,120.38,11.416,99.462
0.95,120.38,11.416,99.462
0.95,120.38,11.416,99.462
0.95,120.38,11.416,99.462
0.95,120.38,11.416,99.462
0.95,120.38,11.416,99.462
0.95,120.38,11.416,99.462
0.96,120.38,11.416,99.462
0.96,120.38,11.416,99.462
0.96,120.38,11.416,99.462
0.96,120.38,11.416,99.462
0.96,120.38,11.416,99.462
0.97,120.38,11.416,99.462
0.97,120.38,11.416,99.462
0.97,120.38,11.416,99.462
0.97,120.38,11.416,99.462
0.97,120.38,11.416,99.462
0.97,120.38,11.416,99.462
0.98,120.38,11.416,99.462
0.98,120.38,11.416,99.462
0.98,120.38,11.416,99.462
0.98,120.38,11.416,99.462
0.98,120.38,11.416,99.462
0.98,120.38,11.416,99.462
0.98,120.38,11.416,99.462
0.99,120.38,11.416,99.462
0.99,120.38,11.416,99.462
0.99,120.38,11.416,99.462
0.99,120.38,11.416,99.462
0.99,120.38,11.416,99.462
1.00,120.38,11.416,99.462
1.00,120.38,11.416,99.462
1.00,120.38,11.416,99.462

[step]
Equilibrate 120.00 °C
Time,Temperature,Weight,Weight
min,°C,mg,%
1.00,120.38,11.416,99.462
1.00,120.38,11.416,99.462
1.00,120.38,11.417,99.471
1.00,120.38,11.425,99.540
1.01,120.38,11.452,99.778
1.01,120.38,11.478,100.004
1.01,120.38,11.497,100.167
1.01,120.38,11.510,100.280
1.01,120.38,11.517,100.347
1.02,120.38,11.521,100.376
1.02,120.38,11.523,100.393
1.02,120.38,11.530,100.454
1.02,120.38,11.541,100.550
1.02,120.38,11.549,100.622
1.02,120.38,11.551,100.638
1.03,120.38,11.547,100.601
1.03,120.38,11.542,100.561
1.03,120.38,11.541,100.549
1.03,120.38,11.544,100.576
1.03,120.38,11.550,100.629
1.03,120.38,11.555,100.673
1.03,120.38,11.556,100.683
1.04,120.38,11.552,100.648
1.04,120.38,11.544,100.582
1.04,120.38,11.539,100.533
1.04,120.38,11.540,100.542
1.04,120.38,11.545,100.589
1.05,120.38,11.550,100.631
1.05,120.38,11.551,100.642
1.05,120.38,11.547,100.609
1.05,120.38,11.543,100.572
1.05,120.38,11.534,100.494
1.05,120.38,11.535,100.499
1.05,120.38,11.536,100.506
1.06,120.38,11.537,100.517
1.06,120.38,11.536,100.510
1.06,120.38,11.531,100.466
1.06,120.38,11.529,100.448
1.06,120.38,11.526,100.424
1.07,120.38,11.524,100.408
1.07,120.38,11.523,100.399
1.07,120.38,11.523,100.396
1.07,120.38,11.523,100.393
1.07,120.38,11.522,100.388
1.07,120.38,11.521,100.375
1.08,120.38,11.519,100.360
1.08,120.38,11.518,100.354
1.08,120.38,11.518,100.353
1.08,120.38,11.518,100.354
1.08,120.38,11.518,100.354
1.08,120.38,11.518,100.354
1.08,120.38,11.518,100.354
1.09,120.38,11.518,100.355
1.09,120.38,11.519,100.363
1.09,120.38,11.522,100.391
1.09,120.38,11.527,100.431
1.09,120.38,11.530,100.455
1.09,120.38,11.531,100.462
1.10,120.38,11.531,100.464
1.10,120.38,11.531,100.466
1.10,120.38,11.532,100.470
1.10,120.38,11.533,100.479
1.10,120.38,11.533,100.484
1.11,120.38,11.533,100.484
1.11,120.38,11.533,100.479
1.11,120.38,11.532,100.471
1.11,120.38,11.530,100.456
1.11,120.38,11.528,100.442
1.11,120.38,11.528,100.436
1.12,120.38,11.527,100.435
1.12,120.38,11.527,100.434
1.12,120.38,11.527,100.433
1.12,120.38,11.527,100.432
1.12,120.38,11.527,100.431
1.12,120.38,11.527,100.430
1.13,120.38,11.527,100.429
1.13,120.38,11.527,100.429
1.13,120.38,11.527,100.428
1.13,120.38,11.526,100.425
1.13,120.38,11.526,100.418
1.13,120.38,11.525,100.412
1.13,120.38,11.524,100.408
1.14,120.38,11.524,100.406
1.14,120.38,11.524,100.405
1.14,120.38,11.524,100.403
1.14,120.38,11.524,100.400
1.14,120.38,11.522,100.391
1.14,120.38,11.521,100.380
1.15,120.38,11.521,100.375
1.15,120.38,11.521,100.374
1.15,120.38,11.520,100.374
1.15,120.38,11.520,100.374
1.15,120.38,11.520,100.373
1.16,120.38,11.520,100.372
1.16,120.38,11.520,100.370
1.16,120.38,11.520,100.369
1.16,120.38,11.520,100.368
1.16,120.38,11.520,100.368
1.16,120.38,11.520,100.367
1.17,120.38,11.520,100.367
1.17,120.38,11.520,100.366
1.17,120.38,11.520,100.366
1.17,120.38,11.520,100.366
1.17,120.38,11.520,100.366
1.17,120.38,11.520,100.365
1.18,120.38,11.519,100.365
1.18,120.38,11.519,100.363
1.18,120.38,11.519,100.361
1.18,120.38,11.519,100.361
1.18,120.38,11.519,100.360
1.18,120.38,11.519,100.360
1.18,120.38,11.519,100.360
1.19,120.38,11.519,100.359
1.19,120.38,11.518,100.357
1.19,120.38,11.518,100.355
1.19,120.37,11.518,100.354
1.19,120.37,11.518,100.354
1.19,120.37,11.518,100.353
1.20,120.37,11.518,100.353
1.20,120.37,11.518,100.352
1.20,120.37,11.518,100.350
1.20,120.37,11.517,100.346
1.20,120.37,11.517,100.345
1.21,120.37,11.517,100.344
1.21,120.37,11.517,100.344
1.21,120.37,11.517,100.343
1.21,120.37,11.517,100.343
1.21,120.37,11.517,100.342
1.21,120.37,11.517,100.341
1.22,120.37,11.517,100.340
1.22,120.37,11.517,100.339
1.22,120.37,11.516,100.339
1.22,120.37,11.516,100.338
1.22,120.37,11.516,100.338
1.22,120.37,11.516,100.337
1.23,120.37,11.516,100.337
1.23,120.37,11.516,100.336
1.23,120.37,11.516,100.335
1.23,120.37,11.516,100.335
1.23,120.37,11.516,100.335
1.23,120.37,11.516,100.334
1.23,120.37,11.516,100.334
1.24,120.37,11.516,100.333
1.24,120.37,11.516,100.332
1.24,120.37,11.516,100.332
1.24,120.37,11.516,100.331
1.24,120.37,11.516,100.331
1.24,120.37,11.515,100.330
1.25,120.37,11.515,100.330
1.25,120.37,11.515,100.329
1.25,120.37,11.515,100.328
1.25,120.37,11.515,100.328
1.25,120.37,11.515,100.327
1.26,120.37,11.515,100.327
1.26,120.37,11.515,100.327
1.26,120.37,11.515,100.326
1.26,120.37,11.515,100.325
1.26,120.37,11.515,100.325
1.26,120.37,11.515,100.324
1.27,120.37,11.515,100.324
1.27,120.37,11.515,100.324
1.27,120.37,11.515,100.323
1.27,120.37,11.515,100.323
1.27,120.37,11.515,100.322
1.27,120.37,11.514,100.321
1.28,120.37,11.514,100.321
1.28,120.37,11.514,100.320
1.28,120.37,11.514,100.320
1.28,120.37,11.514,100.319
1.28,120.37,11.514,100.319
1.28,120.37,11.514,100.318
1.28,120.37,11.514,100.318
1.29,120.37,11.514,100.317
1.29,120.37,11.514,100.316
1.29,120.37,11.514,100.316
1.29,120.37,11.514,100.316
1.29,120.37,11.514,100.315
1.29,120.37,11.514,100.315
1.30,120.37,11.514,100.314
1.30,120.37,11.514,100.314
1.30,120.37,11.514,100.313
1.30,120.37,11.513,100.313
1.30,120.37,11.513,100.312
1.31,120.37,11.513,100.312
1.31,120.37,11.513,100.311
1.31,120.37,11.513,100.311
1.31,120.37,11.513,100.310
1.31,120.37,11.513,100.310
1.31,120.37,11.513,100.309
1.32,120.37,11.513,100.309
1.32,120.36,11.513,100.308
1.32,120.36,11.513,100.308
1.32,120.36,11.513,100.307
1.32,120.36,11.513,100.306
1.32,120.36,11.513,100.306
1.33,120.36,11.513,100.305
1.33,120.36,11.513,100.305
1.33,120.36,11.512,100.304
1.33,120.36,11.512,100.304
1.33,120.36,11.512,100.303
1.33,120.36,11.512,100.303
1.33,120.36,11.512,100.302
1.34,120.36,11.512,100.301
1.34,120.36,11.512,100.301
1.34,120.36,11.512,100.301
1.34,120.36,11.512,100.300
1.34,120.36,11.512,100.300
1.34,120.36,11.512,100.299
1.35,120.36,11.512,100.299
1.35,120.36,11.512,100.298
1.35,120.36,11.512,100.298
1.35,120.36,11.512,100.297
1.35,120.36,11.512,100.297
1.36,120.36,11.512,100.296
1.36,120.36,11.512,100.296
1.36,120.36,11.511,100.295
1.36,120.36,11.511,100.295
1.36,120.36,11.511,100.294
1.36,120.36,11.511,100.294
1.37,120.36,11.511,100.293
1.37,120.36,11.511,100.293
1.37,120.36,11.511,100.292
1.37,120.36,11.511,100.292
1.37,120.36,11.511,100.291
1.37,120.36,11.511,100.291
1.38,120.36,11.511,100.290
1.38,120.36,11.511,100.290
1.38,120.36,11.511,100.290
1.38,120.36,11.511,100.289
1.38,120.36,11.511,100.289
1.38,120.36,11.511,100.288
1.38,120.36,11.511,100.288
1.39,120.36,11.511,100.287
1.39,120.36,11.510,100.287
1.39,120.36,11.510,100.286
1.39,120.36,11.510,100.286
1.39,120.36,11.510,100.285
1.39,120.36,11.510,100.285
1.40,120.36,11.510,100.284
1.40,120.36,11.510,100.284
1.40,120.36,11.510,100.283
1.40,120.36,11.510,100.283
1.40,120.36,11.510,100.282
1.41,120.36,11.510,100.282
1.41,120.36,11.510,100.281
1.41,120.36,11.510,100.281
1.41,120.36,11.510,100.281
1.41,120.36,11.510,100.280
1.41,120.36,11.510,100.280
1.42,120.36,11.510,100.280
1.42,120.36,11.510,100.279
1.42,120.35,11.510,100.279
1.42,120.35,11.509,100.278
1.42,120.35,11.509,100.278
1.42,120.35,11.509,100.277
1.43,120.35,11.509,100.277
1.43,120.35,11.509,100.276
1.43,120.35,11.509,100.276
1.43,120.35,11.509,100.275
1.43,120.35,11.509,100.275
1.43,120.35,11.509,100.274
1.43,120.35,11.509,100.274
1.44,120.35,11.509,100.274
1.44,120.35,11.509,100.273
1.44,120.35,11.509,100.273
1.44,120.35,11.509,100.272
1.44,120.35,11.509,100.272
1.44,120.35,11.509,100.271
1.45,120.35,11.509,100.271
1.45,120.35,11.509,100.271
1.45,120.35,11.509,100.270
1.45,120.35,11.509,100.270
1.45,120.35,11.508,100.269
1.46,120.35,11.508,100.269
1.46,120.35,11.508,100.268
1.46,120.35,11.508,100.268
1.46,120.35,11.508,100.268
1.46,120.35,11.508,100.267
1.46,120.35,11.508,100.267
1.47,120.35,11.508,100.266
1.47,120.35,11.508,100.266
1.47,120.35,11.508,100.266
1.47,120.35,11.508,100.265
1.47,120.35,11.508,100.265
1.47,120.35,11.508,100.265
1.48,120.35,11.508,100.264
1.48,120.35,11.508,100.264
1.48,120.35,11.508,100.263
1.48,120.35,11.508,100.263
1.48,120.35,11.508,100.263
1.48,120.35,11.508,100.262
1.48,120.35,11.508,100.262
1.49,120.35,11.508,100.262
1.49,120.35,11.508,100.261
1.49,120.35,11.508,100.261
1.49,120.35,11.507,100.260
1.49,120.35,11.507,100.260
1.49,120.35,11.507,100.260
1.50,120.35,11.507,100.259
1.50,120.35,11.507,100.259
1.50,120.35,11.507,100.259
1.50,120.35,11.507,100.258
1.50,120.35,11.507,100.258
1.51,120.35,11.507,100.258
1.51,120.34,11.507,100.258
1.51,120.34,11.507,100.257
1.51,120.34,11.507,100.257
1.51,120.34,11.507,100.256
1.51,120.34,11.507,100.256
1.52,120.34,11.507,100.255
1.52,120.34,11.507,100.255
1.52,120.34,11.507,100.255
1.52,120.34,11.507,100.254
1.52,120.34,11.507,100.254
1.52,120.34,11.507,100.254
1.53,120.34,11.507,100.253
1.53,120.34,11.507,100.253
1.53,120.34,11.507,100.252

[step]
Ramp 5.00 °C/min to 325.00 °C
Time,Temperature,Weight,Weight,Deriv. Weight
min,°C,mg,%,% / °C
1.53,120.34,11.506,100.252,1.10000
1.55,120.34,11.506,100.248,2.12291
1.56,120.34,11.506,100.245,1.84025
1.58,120.34,11.505,100.242,2.35820
1.60,120.34,11.505,100.238,9.66447
1.61,120.34,11.505,100.236,-1.82048
1.63,120.34,11.504,100.233,-1.32419
1.65,120.34,11.504,100.230,-0.598521
1.66,120.35,11.504,100.227,-0.307428
1.68,120.36,11.503,100.224,-0.298526
1.70,120.37,11.503,100.221,-0.163856
1.71,120.39,11.503,100.218,-0.179576
1.73,120.40,11.502,100.215,-0.149661
1.75,120.43,11.502,100.212,-0.0942670
1.76,120.45,11.502,100.209,-0.0796410
1.78,120.48,11.501,100.206,-0.0780064
1.80,120.51,11.501,100.204,-0.0855135
1.81,120.55,11.501,100.201,-0.0680390
1.83,120.59,11.500,100.199,-0.0583268
1.85,120.64,11.500,100.196,-0.0504249
1.86,120.68,11.500,100.193,-0.0470022
1.88,120.74,11.500,100.191,-0.0413396
1.90,120.79,11.499,100.189,-0.0265361
1.91,120.85,11.499,100.187,-0.0350835
1.93,120.92,11.499,100.184,-0.0463186
1.95,120.99,11.498,100.182,-0.0289889
1.96,121.06,11.498,100.180,-0.0175957
1.98,121.13,11.498,100.177,-0.0315370
2.00,121.20,11.498,100.175,-0.0333827
2.01,121.28,11.497,100.173,-0.0332979
2.03,121.36,11.497,100.171,-0.0250709
2.05,121.44,11.497,100.168,-0.0338226
2.06,121.52,11.497,100.166,-0.0371284
2.08,121.60,11.496,100.164,-0.0270142
2.10,121.68,11.496,100.162,-0.0255358
2.11,121.76,11.496,100.160,-0.0119776
2.13,121.84,11.496,100.158,-0.0145350
2.15,121.92,11.495,100.156,-0.0261885
2.16,122.00,11.495,100.153,-0.0227922
2.18,122.08,11.495,100.152,-0.0250943
2.20,122.16,11.495,100.150,-0.0232041
2.21,122.24,11.494,100.147,-0.0217933
2.23,122.32,11.494,100.146,-0.0254377
2.25,122.41,11.494,100.144,-0.0323569
2.26,122.49,11.494,100.142,-1.19967e-3
2.28,122.57,11.494,100.141,-0.0194291
2.30,122.65,11.494,100.139,-0.0201835
2.31,122.74,11.493,100.137,-0.0328052
2.33,122.82,11.493,100.135,-0.0255447
2.35,122.90,11.493,100.133,-0.0253293
2.36,122.99,11.493,100.131,-0.0154579
2.38,123.07,11.492,100.130,-0.0109630
2.40,123.15,11.492,100.128,-0.0262360
2.41,123.24,11.492,100.126,-0.0232175
2.43,123.32,11.492,100.124,-0.0246979
2.45,123.41,11.492,100.122,-0.0222436
2.46,123.49,11.491,100.120,-0.0191272
2.48,123.57,11.491,100.119,-8.60611e-3
2.50,123.66,11.491,100.118,-0.0200606
2.51,123.74,11.491,100.116,-0.0157584
2.53,123.82,11.491,100.114,-0.0203392
2.55,123.90,11.490,100.112,-0.0255845
2.56,123.99,11.490,100.111,-0.0237508
2.58,124.07,11.490,100.109,-0.0239410
2.60,124.15,11.490,100.107,-0.0302341
2.61,124.24,11.490,100.105,-0.0105324
2.63,124.32,11.489,100.103,-9.97255e-3
2.65,124.40,11.489,100.101,-0.0151819
2.66,124.49,11.489,100.100,-0.0222911
2.68,124.57,11.489,100.098,-0.0224690
2.70,124.66,11.489,100.096,-0.0240074
2.71,124.74,11.488,100.094,-0.0193499
2.73,124.82,11.488,100.092,-0.0156980
2.75,124.91,11.488,100.091,-0.0178832
2.76,124.99,11.488,100.089,-8.20840e-3
2.78,125.07,11.488,100.088,-0.0205286
2.80,125.16,11.488,100.087,-0.0151531
2.81,125.24,11.487,100.086,-0.0194511
2.83,125.32,11.487,100.084,-0.0177249
2.85,125.41,11.487,100.083,-0.0195558
2.86,125.49,11.487,100.081,-0.0156370
2.88,125.57,11.487,100.079,-0.0235882
2.90,125.66,11.486,100.078,-0.0123417
2.91,125.74,11.486,100.076,-0.0210428
2.93,125.82,11.486,100.074,-0.0142697
2.95,125.91,11.486,100.074,-1.37130e-3
2.96,125.99,11.486,100.072,-0.0104137
2.98,126.08,11.486,100.071,-0.0160773
3.00,126.16,11.486,100.070,-0.0172491
3.01,126.24,11.485,100.068,-0.0186283
3.03,126.33,11.485,100.067,-7.84836e-3
3.05,126.41,11.485,100.066,-0.0224572
3.06,126.49,11.485,100.064,-0.0144319
3.08,126.58,11.485,100.063,-0.0211913
3.10,126.66,11.485,100.062,-0.0146284
3.11,126.74,11.485,100.061,-5.39212e-3
3.13,126.83,11.484,100.060,-0.0250345
3.15,126.91,11.484,100.058,-0.0161835
3.16,126.99,11.484,100.057,-0.0127139
3.18,127.08,11.484,100.056,-0.0173728
3.20,127.16,11.484,100.055,-0.0171186
3.21,127.24,11.484,100.054,-0.0168179
3.23,127.33,11.484,100.053,2.83355e-3
3.25,127.41,11.484,100.052,-8.04160e-3
3.26,127.49,11.483,100.052,-3.47032e-3
3.28,127.58,11.483,100.050,-6.76268e-3
3.30,127.66,11.483,100.049,-6.03205e-3
3.31,127.74,11.483,100.048,-0.0220186
3.33,127.83,11.483,100.046,-0.0193783
3.35,127.91,11.483,100.044,-0.0180134
3.36,128.00,11.482,100.043,-0.0129940
3.38,128.08,11.482,100.042,-9.24493e-3
3.40,128.16,11.482,100.040,-9.97675e-3
3.41,128.25,11.482,100.040,-8.60806e-3
3.43,128.33,11.482,100.038,-0.0104381
3.45,128.41,11.482,100.038,-5.58353e-3
3.46,128.50,11.482,100.037,-7.68329e-3
3.48,128.58,11.482,100.036,-0.0181319
3.50,128.66,11.482,100.034,-0.0156446
3.51,128.75,11.481,100.034,-0.0182951
3.53,128.83,11.481,100.033,-0.0156287
3.55,128.91,11.481,100.032,-0.0179059
3.56,129.00,11.481,100.030,-0.0106997
3.58,129.08,11.481,100.030,-0.0138183
3.60,129.16,11.481,100.029,-6.95672e-3
3.61,129.25,11.481,100.028,-5.59011e-3
3.63,129.33,11.481,100.027,-0.0187796
3.65,129.41,11.481,100.026,-0.0177753
3.66,129.50,11.480,100.025,-0.0138317
3.68,129.58,11.480,100.023,-0.0125422
3.70,129.66,11.480,100.022,-0.0160256
3.71,129.75,11.480,100.020,-0.0171248
3.73,129.83,11.480,100.020,-5.58122e-3
3.75,129.91,11.480,100.019,-0.0178497
3.76,130.00,11.480,100.017,-6.12749e-3
3.78,130.08,11.479,100.016,-0.0191956
3.80,130.16,11.479,100.015,-1.55450e-3
3.81,130.25,11.479,100.014,-0.0149078
3.83,130.33,11.479,100.014,-0.0108874
3.85,130.41,11.479,100.013,-0.0123465
3.86,130.50,11.479,100.012,-9.60667e-3
3.88,130.58,11.479,100.011,-0.0314442
3.90,130.66,11.479,100.009,-5.12201e-3
3.91,130.75,11.478,100.008,-0.0201379
3.93,130.83,11.478,100.007,-0.0146466
3.95,130.91,11.478,100.006,-0.0229853
3.96,131.00,11.478,100.005,-5.13583e-3
3.98,131.08,11.478,100.004,-0.0134814
4.00,131.16,11.478,100.004,-3.65321e-4
4.01,131.25,11.478,100.003,-4.68264e-3
4.03,131.33,11.478,100.002,-9.28309e-3
4.05,131.41,11.478,100.001,-4.59451e-3
4.06,131.50,11.478,100.000,-0.0173558
4.08,131.58,11.477,99.999,-0.0118409
4.10,131.66,11.477,99.998,-7.61044e-3
4.11,131.74,11.477,99.997,-3.75290e-3
4.13,131.83,11.477,99.996,-0.0222407
4.15,131.91,11.477,99.995,-0.0111517
4.16,132.00,11.477,99.994,-0.0110578
4.18,132.08,11.477,99.993,-3.64130e-4
4.20,132.16,11.477,99.993,-3.38208e-3
4.21,132.25,11.477,99.992,-3.38101e-3
4.23,132.33,11.477,99.991,-6.49121e-3
4.25,132.41,11.476,99.990,-0.0122632
4.26,132.50,11.476,99.989,-0.0107986
4.28,132.58,11.476,99.989,0.0129087
4.30,132.66,11.476,99.990,0.0184982
4.31,132.75,11.476,99.990,-8.79416e-3
4.33,132.83,11.476,99.989,-0.0177885
4.35,132.91,11.476,99.988,-0.0143039
4.36,133.00,11.476,99.987,-0.0160404
4.38,133.08,11.476,99.985,-0.0135657
4.40,133.16,11.476,99.984,-0.0152183
4.41,133.25,11.476,99.983,-0.0174214
4.43,133.33,11.475,99.982,1.55819e-3
4.45,133.41,11.475,99.981,-0.0209100
4.46,133.50,11.475,99.980,-0.0106264
4.48,133.58,11.475,99.979,-0.0103527
4.50,133.66,11.475,99.978,-0.0130899
4.51,133.74,11.475,99.977,-0.0105370
4.53,133.83,11.475,99.976,-8.69531e-3
4.55,133.91,11.475,99.975,-8.15545e-3
4.56,133.99,11.475,99.974,-0.0180403
4.58,134.08,11.474,99.973,1.37497e-3
4.60,134.16,11.474,99.972,-6.78162e-3
4.61,134.24,11.474,99.972,-7.78667e-3
4.63,134.33,11.474,99.971,-0.0109174
4.65,134.41,11.474,99.971,-5.50459e-3
4.66,134.49,11.474,99.970,-0.0112880
4.68,134.58,11.474,99.969,-0.0164364
4.70,134.66,11.474,99.968,-0.0102848
4.71,134.74,11.474,99.967,-0.0138482
4.73,134.83,11.474,99.967,-3.94495e-3
4.75,134.91,11.474,99.966,-0.0143171
4.76,134.99,11.474,99.965,-0.0113865
4.78,135.08,11.474,99.965,-4.13029e-3
4.80,135.16,11.473,99.964,-8.24814e-4
4.81,135.24,11.473,99.964,3.93773e-3
4.83,135.33,11.473,99.964,-3.75847e-3
4.85,135.41,11.473,99.963,-8.61881e-3
4.86,135.49,11.473,99.962,-6.70004e-3
4.88,135.58,11.473,99.961,-9.91395e-3
4.90,135.66,11.473,99.960,-6.52966e-3
4.91,135.74,11.473,99.960,-5.88235e-3
4.93,135.82,11.473,99.959,-0.0171057
4.95,135.91,11.473,99.958,-4.41308e-3
4.96,135.99,11.473,99.957,-9.00488e-3
4.98,136.07,11.473,99.957,-7.72059e-3
5.00,136.16,11.473,99.956,-3.30572e-3
5.01,136.24,11.472,99.956,-0.0130205
5.03,136.32,11.472,99.955,-3.02665e-3
5.05,136.41,11.472,99.954,-7.32601e-4
5.06,136.49,11.472,99.954,-9.80216e-3
5.08,136.57,11.472,99.953,-9.34066e-3
5.10,136.66,11.472,99.953,-9.33245e-3
5.11,136.74,11.472,99.952,-0.0100601
5.13,136.82,11.472,99.951,-8.77821e-3
5.15,136.91,11.472,99.950,6.40657e-4
5.16,136.99,11.472,99.950,-7.77949e-3
5.18,137.07,11.472,99.949,-0.0103424
5.20,137.16,11.472,99.949,-8.42491e-3
5.21,137.24,11.472,99.948,-0.0131076
5.23,137.32,11.472,99.947,-3.39301e-3
5.25,137.41,11.471,99.947,-0.0128277
5.26,137.49,11.471,99.946,-3.85493e-3
5.28,137.57,11.471,99.945,-4.30917e-3
5.30,137.66,11.471,99.945,-6.24315e-3
5.31,137.74,11.471,99.944,-6.42471e-4
5.33,137.82,11.471,99.944,-8.80310e-3
5.35,137.90,11.471,99.943,-1.46806e-3
5.36,137.99,11.471,99.943,-4.76613e-3
5.38,138.07,11.471,99.942,-5.96064e-3
5.40,138.15,11.471,99.942,-0.0138486
5.41,138.24,11.471,99.941,-3.85092e-3
5.43,138.32,11.471,99.940,-4.76627e-3
5.45,138.40,11.471,99.940,-1.37363e-3
5.46,138.49,11.471,99.940,-9.43056e-3
5.48,138.57,11.471,99.939,-8.42668e-3
5.50,138.65,11.470,99.938,-3.11631e-3
5.51,138.74,11.470,99.938,-8.16012e-3
5.53,138.82,11.470,99.937,-8.43572e-3
5.55,138.90,11.470,99.937,-4.58346e-4
5.56,138.99,11.470,99.936,-6.68867e-3
5.58,139.07,11.470,99.936,4.21826e-3
5.60,139.15,11.470,99.935,-4.12854e-3
5.61,139.24,11.470,99.935,-7.51345e-3
5.63,139.32,11.470,99.934,-8.15502e-3
5.65,139.40,11.470,99.934,-3.20933e-3
5.66,139.49,11.470,99.933,-8.16224e-3
5.68,139.57,11.470,99.933,2.10858e-3
5.70,139.65,11.470,99.933,-0.0122752
5.71,139.74,11.470,99.932,-9.61716e-3
5.73,139.82,11.470,99.932,-5.49692e-3
5.75,139.90,11.470,99.931,-0.0213532
5.76,139.99,11.470,99.931,3.02752e-3
5.78,140.07,11.470,99.930,-7.44840e-3
5.80,140.15,11.470,99.930,-4.78598e-3
5.81,140.23,11.469,99.929,-7.64273e-3
5.83,140.32,11.469,99.929,-0.0154783
5.85,140.40,11.469,99.929,2.11976e-3
5.86,140.48,11.469,99.928,-6.62729e-3
5.88,140.57,11.469,99.928,-4.13799e-3
5.90,140.65,11.469,99.927,-7.25512e-3
5.91,140.73,11.469,99.927,-0.0124715
5.93,140.82,11.469,99.927,-8.05861e-3
5.95,140.90,11.469,99.926,-4.11984e-3
5.96,140.98,11.469,99.926,-4.29853e-3
5.98,141.07,11.469,99.925,-4.93675e-3
6.00,141.15,11.469,99.925,-7.86106e-3
6.01,141.23,11.469,99.924,-5.76106e-3
6.03,141.32,11.469,99.924,-7.32058e-3
6.05,141.40,11.469,99.923,-2.74725e-3
6.06,141.48,11.469,99.923,-5.03884e-3
6.08,141.57,11.469,99.923,-4.85804e-3
6.10,141.65,11.469,99.922,-8.16170e-3
6.11,141.73,11.469,99.922,2.47572e-3
6.13,141.82,11.469,99.921,2.93787e-3
6.15,141.90,11.469,99.921,-4.49541e-3
6.16,141.98,11.468,99.921,-0.0138532
6.18,142.06,11.468,99.920,-1.10173e-3
6.20,142.15,11.468,99.920,-6.24429e-3
6.21,142.23,11.468,99.919,-1.28538e-3
6.23,142.31,11.468,99.919,-4.31459e-3
6.25,142.40,11.468,99.919,-5.22936e-3
6.26,142.48,11.468,99.919,-5.77982e-3
6.28,142.56,11.468,99.918,-8.26352e-3
6.30,142.65,11.468,99.918,-7.79514e-3
6.31,142.73,11.468,99.917,-0.0122007
6.33,142.81,11.468,99.917,-2.29183e-3
6.35,142.90,11.468,99.916,-3.64551e-4
6.36,142.98,11.468,99.916,-9.25593e-3
6.38,143.06,11.468,99.916,-2.47528e-3
6.40,143.15,11.468,99.916,-6.60167e-3
6.41,143.23,11.468,99.915,-3.75609e-3
6.43,143.31,11.468,99.915,1.28296e-3
6.45,143.40,11.468,99.914,-2.74900e-3
6.46,143.48,11.468,99.914,-5.03975e-3
6.48,143.56,11.468,99.914,1.09940e-3
6.50,143.65,11.468,99.913,-1.09840e-3
6.51,143.73,11.468,99.913,-7.88268e-3
6.53,143.81,11.468,99.913,-4.03185e-3
6.55,143.90,11.468,99.912,-0.0125618
6.56,143.98,11.467,99.912,-4.31193e-3
6.58,144.06,11.467,99.912,-7.06082e-3
6.60,144.15,11.467,99.911,-2.66183e-3
6.61,144.23,11.467,99.911,-3.03029e-3
6.63,144.31,11.467,99.911,-3.39450e-3
6.65,144.39,11.467,99.911,7.34383e-4
6.66,144.48,11.467,99.910,-5.05515e-3
6.68,144.56,11.467,99.910,-5.14706e-3
6.70,144.64,11.467,99.909,-0.0125919
6.71,144.73,11.467,99.909,-5.23623e-3
6.73,144.81,11.467,99.909,3.30430e-3
6.75,144.89,11.467,99.909,-0.0110092
6.76,144.98,11.467,99.908,1.46614e-3
6.78,145.06,11.467,99.908,-8.51648e-3
6.80,145.14,11.467,99.908,-3.65965e-3
6.81,145.23,11.467,99.907,-1.28188e-3
6.83,145.31,11.467,99.907,-7.05467e-3
6.85,145.39,11.467,99.907,-1.55869e-3
6.86,145.48,11.467,99.907,-0.0118300
6.88,145.56,11.467,99.906,-8.43387e-3
6.90,145.64,11.467,99.906,1.83756e-4
6.91,145.73,11.467,99.906,-7.07531e-3
6.93,145.81,11.467,99.906,-1.84705e-4
[...]
13.83,180.24,11.463,99.872,9.04936e-3
13.85,180.32,11.463,99.872,-8.31295e-3
13.86,180.41,11.463,99.872,8.67899e-3
13.88,180.49,11.463,99.872,-2.92886e-3
13.90,180.57,11.463,99.872,-2.56514e-3
13.91,180.66,11.463,99.872,-1.74413e-3
13.93,180.74,11.463,99.872,-6.89368e-3
13.95,180.82,11.463,99.872,2.66706e-3
13.96,180.91,11.463,99.872,6.99148e-3
13.98,180.99,11.463,99.871,-3.30882e-3
14.00,181.07,11.463,99.871,1.19397e-3
14.01,181.16,11.463,99.871,3.39450e-3
14.03,181.24,11.463,99.872,3.48277e-3
14.05,181.32,11.463,99.871,4.39560e-3
14.06,181.41,11.463,99.872,-9.60242e-3
14.08,181.49,11.463,99.871,2.83842e-3
14.10,181.57,11.463,99.872,2.28834e-3
14.11,181.66,11.463,99.872,-5.49451e-3
14.13,181.74,11.463,99.871,3.66300e-4
14.15,181.82,11.463,99.871,1.82714e-4
14.16,181.91,11.463,99.871,-7.34820e-4
14.18,181.99,11.463,99.871,1.55906e-3
14.20,182.07,11.463,99.871,-7.70642e-3
14.21,182.15,11.463,99.871,3.76254e-3
14.23,182.24,11.463,99.871,-1.46846e-3
14.25,182.32,11.463,99.872,0.0133145
14.26,182.40,11.463,99.872,-0.0110156
14.28,182.49,11.463,99.872,-3.30396e-3
14.30,182.57,11.463,99.872,0.00000
14.31,182.65,11.463,99.872,-1.10092e-3
14.33,182.74,11.463,99.871,5.23225e-3
14.35,182.82,11.463,99.871,-2.84663e-3
14.36,182.90,11.463,99.871,-3.39837e-3
14.38,182.99,11.463,99.871,-1.01008e-3
14.40,183.07,11.463,99.871,8.45071e-3
14.41,183.15,11.463,99.871,-3.30622e-3
14.43,183.24,11.463,99.871,2.84602e-3
14.45,183.32,11.463,99.871,5.23738e-3
14.46,183.40,11.463,99.871,-6.42923e-3
14.48,183.48,11.463,99.871,7.43523e-3
14.50,183.57,11.463,99.871,2.66092e-3
14.51,183.65,11.463,99.871,-6.23473e-3
14.53,183.73,11.463,99.871,1.37363e-3
14.55,183.82,11.463,99.871,-2.28938e-3
14.56,183.90,11.463,99.871,3.20513e-3
14.58,183.98,11.463,99.871,2.83973e-3
14.60,184.07,11.463,99.871,-9.89011e-3
14.61,184.15,11.463,99.871,3.57680e-3
14.63,184.23,11.463,99.871,2.93430e-3
14.65,184.32,11.463,99.871,-1.65117e-3
14.66,184.40,11.463,99.871,-2.75802e-4
14.68,184.48,11.463,99.871,-0.0133127
14.70,184.57,11.463,99.871,3.76480e-3
14.71,184.65,11.463,99.871,-2.56945e-3
14.73,184.73,11.463,99.871,0.0157943
14.75,184.82,11.463,99.871,6.44160e-4
14.76,184.90,11.463,99.871,-3.67884e-4
14.78,184.98,11.463,99.871,7.35964e-3
14.80,185.06,11.463,99.871,-8.47145e-3
14.81,185.15,11.463,99.871,0.0109591
14.83,185.23,11.463,99.870,6.25849e-3
14.85,185.31,11.463,99.870,-4.32781e-3
14.86,185.40,11.463,99.870,5.52181e-4
14.88,185.48,11.463,99.870,2.48324e-3
14.90,185.56,11.463,99.870,-5.98103e-3
14.91,185.64,11.463,99.870,4.77695e-3
14.93,185.73,11.463,99.870,-8.26777e-3
14.95,185.81,11.463,99.870,7.25155e-3
14.96,185.89,11.463,99.870,-2.29116e-3
14.98,185.98,11.463,99.870,-4.21447e-3
15.00,186.06,11.463,99.870,-3.38922e-3
15.01,186.14,11.463,99.870,3.75978e-3
15.03,186.23,11.463,99.870,-0.0129303
15.05,186.31,11.463,99.870,5.77982e-3
15.06,186.39,11.463,99.870,-0.0152093
15.08,186.48,11.463,99.869,1.83170e-3
15.10,186.56,11.463,99.870,-1.83451e-4
15.11,186.64,11.463,99.870,-3.65631e-4
15.13,186.73,11.463,99.869,5.74818e-3
15.15,186.81,11.463,99.870,5.47013e-3
15.16,186.89,11.463,99.870,-5.83489e-3
15.18,186.98,11.463,99.870,-8.21168e-4
15.20,187.06,11.463,99.870,-1.73598e-3
15.21,187.15,11.463,99.870,1.55523e-3
15.23,187.23,11.463,99.870,-3.57280e-3
15.25,187.31,11.463,99.870,1.65198e-3
15.26,187.39,11.463,99.870,8.08824e-3
15.28,187.48,11.463,99.870,-1.38057e-3
15.30,187.56,11.463,99.870,-1.01245e-3
15.31,187.64,11.463,99.870,-7.62868e-3
15.33,187.73,11.463,99.870,7.35294e-4
15.35,187.81,11.463,99.870,7.35869e-4
15.36,187.89,11.463,99.870,-7.07359e-3
15.38,187.98,11.463,99.870,-6.97248e-3
15.40,188.06,11.463,99.870,5.49920e-4
15.41,188.14,11.463,99.870,6.04577e-3
15.43,188.23,11.463,99.870,-3.39285e-3
15.45,188.31,11.463,99.871,3.67114e-3
15.46,188.39,11.463,99.870,-4.03909e-3
15.48,188.47,11.463,99.870,6.62076e-3
15.50,188.56,11.463,99.871,1.29104e-3
15.51,188.64,11.463,99.870,-0.0122724
15.53,188.72,11.463,99.870,9.95306e-3
15.55,188.81,11.463,99.871,6.54982e-3
15.56,188.89,11.463,99.871,-1.84094e-4
15.58,188.97,11.463,99.871,-8.30224e-4
15.60,189.05,11.463,99.871,8.10313e-3
15.61,189.14,11.463,99.871,2.11786e-3
15.63,189.22,11.463,99.871,0.0112082
15.65,189.30,11.463,99.872,-7.15984e-3
15.66,189.39,11.463,99.871,-3.02325e-3
15.68,189.47,11.463,99.871,-1.82909e-3
15.70,189.55,11.463,99.870,-9.58472e-3
15.71,189.64,11.463,99.871,2.91814e-3
15.73,189.72,11.463,99.870,8.20868e-4
15.75,189.80,11.463,99.870,6.19613e-3
15.76,189.89,11.463,99.870,-4.47080e-3
15.78,189.97,11.463,99.871,2.46684e-3
15.80,190.05,11.463,99.871,4.94506e-3
15.81,190.14,11.463,99.871,-2.93158e-3
15.83,190.22,11.463,99.870,-1.28373e-3
15.85,190.30,11.463,99.871,0.0130593
15.86,190.39,11.463,99.871,-8.28729e-4
15.88,190.47,11.463,99.871,-6.08614e-3
15.90,190.55,11.463,99.870,6.08730e-3
15.91,190.64,11.463,99.871,5.52809e-3
15.93,190.72,11.463,99.871,-4.96966e-3
15.95,190.80,11.463,99.871,4.03818e-3
15.96,190.88,11.463,99.870,1.64822e-3
15.98,190.97,11.463,99.871,9.14538e-3
16.00,191.05,11.463,99.871,-1.18460e-3
16.01,191.13,11.463,99.871,-1.27637e-3
16.03,191.22,11.463,99.871,6.65725e-3
16.05,191.30,11.463,99.871,-8.84740e-3
16.06,191.39,11.463,99.871,8.30808e-3
16.08,191.47,11.463,99.871,-6.21251e-3
16.10,191.55,11.463,99.871,-1.37225e-3
16.11,191.64,11.463,99.871,4.66403e-3
16.13,191.72,11.463,99.871,-7.42181e-3
16.15,191.80,11.463,99.871,5.96048e-3
16.16,191.89,11.463,99.871,2.38869e-3
16.18,191.97,11.463,99.871,-5.52350e-4
16.20,192.05,11.463,99.871,1.74852e-3
16.21,192.13,11.463,99.871,1.10511e-3
16.23,192.22,11.463,99.871,2.12180e-3
16.25,192.30,11.463,99.871,-9.48435e-3
16.26,192.38,11.463,99.870,-7.17910e-3
16.28,192.47,11.463,99.870,-0.0117662
16.30,192.55,11.463,99.870,3.29956e-3
16.31,192.63,11.463,99.870,-3.48167e-3
16.33,192.72,11.463,99.871,1.09783e-3
16.35,192.80,11.463,99.871,6.75822e-3
16.36,192.88,11.463,99.871,-6.47950e-3
16.38,192.97,11.463,99.871,-3.01095e-3
16.40,193.05,11.463,99.871,8.21168e-4
16.41,193.13,11.463,99.871,-4.56704e-4
16.43,193.22,11.463,99.871,-2.83474e-3
16.45,193.30,11.463,99.871,1.00733e-3
16.46,193.38,11.463,99.871,2.20002e-3
16.48,193.47,11.463,99.871,-1.92725e-3
16.50,193.55,11.463,99.871,3.94287e-3
16.51,193.63,11.463,99.871,4.95413e-3
16.53,193.72,11.463,99.871,3.02476e-3
16.55,193.80,11.463,99.871,-8.60387e-3
16.56,193.88,11.463,99.871,1.55651e-3
16.58,193.97,11.463,99.871,-6.31322e-3
16.60,194.05,11.463,99.871,-5.02240e-7
16.61,194.13,11.463,99.871,3.11097e-3
16.63,194.22,11.463,99.871,-6.22711e-3
16.65,194.30,11.463,99.871,8.88278e-3
16.66,194.38,11.463,99.871,-1.83379e-3
16.68,194.47,11.463,99.871,0.0106576
16.70,194.55,11.463,99.871,1.74724e-3
16.71,194.63,11.463,99.871,6.06908e-3
16.73,194.72,11.463,99.871,1.74873e-3
16.75,194.80,11.463,99.871,-8.46075e-3
16.76,194.88,11.463,99.871,7.08831e-7
16.78,194.96,11.463,99.871,8.44505e-3
16.80,195.05,11.463,99.871,2.74322e-4
16.81,195.13,11.463,99.871,7.13793e-3
16.83,195.21,11.463,99.871,-1.09793e-3
16.85,195.30,11.463,99.872,-4.11602e-3
16.86,195.38,11.463,99.871,-0.0139013
16.88,195.46,11.463,99.871,-1.92147e-3
16.90,195.55,11.463,99.871,-1.64738e-3
16.91,195.63,11.463,99.871,3.75548e-3
16.93,195.71,11.463,99.871,-9.17323e-3
16.95,195.80,11.463,99.871,-1.19266e-3
16.96,195.88,11.463,99.871,8.53969e-3
16.98,195.96,11.463,99.871,-1.74632e-3
17.00,196.05,11.463,99.871,-3.12699e-3
17.01,196.13,11.463,99.871,5.97819e-3
17.03,196.21,11.463,99.871,-3.49501e-3
17.05,196.30,11.463,99.871,3.67748e-4
17.06,196.38,11.463,99.871,-2.20632e-3
17.08,196.46,11.463,99.871,8.26733e-4
17.10,196.54,11.463,99.871,1.92661e-3
17.11,196.63,11.463,99.871,6.23853e-3
17.13,196.71,11.463,99.871,-3.57798e-3
17.15,196.79,11.463,99.871,3.30090e-3
17.16,196.88,11.463,99.871,-0.0136770
17.18,196.96,11.463,99.870,-8.45588e-3
17.20,197.04,11.463,99.870,-9.19118e-5
17.21,197.13,11.463,99.869,2.70130e-7
17.23,197.21,11.463,99.869,-3.95221e-3
17.25,197.29,11.462,99.869,-0.0128676
17.26,197.38,11.462,99.868,6.33573e-3
17.28,197.46,11.462,99.868,1.19387e-3
17.30,197.54,11.462,99.868,-5.86782e-3
17.31,197.62,11.462,99.867,-2.74792e-4
17.33,197.71,11.462,99.867,-3.11543e-3
17.35,197.79,11.462,99.867,1.09890e-3
17.36,197.87,11.462,99.866,-1.00706e-3
17.38,197.96,11.462,99.867,1.92053e-3
17.40,198.04,11.462,99.867,6.40623e-4
17.41,198.13,11.462,99.866,-4.94083e-3
17.43,198.21,11.462,99.866,3.29375e-3
17.45,198.29,11.462,99.866,-7.87942e-3
17.46,198.38,11.462,99.866,-0.0128327
17.48,198.46,11.462,99.866,7.70319e-3
17.50,198.54,11.462,99.866,2.56827e-3
17.51,198.62,11.462,99.866,7.33484e-3
17.53,198.71,11.462,99.866,1.00911e-3
17.55,198.79,11.462,99.866,-2.56881e-3
17.56,198.87,11.462,99.866,-9.20119e-5
17.58,198.96,11.462,99.866,-2.38532e-3
17.60,199.04,11.462,99.866,-2.29381e-3
17.61,199.12,11.462,99.866,-1.92489e-3
17.63,199.21,11.462,99.865,-0.0121949
17.65,199.29,11.462,99.866,5.77645e-3
17.66,199.37,11.462,99.866,9.17431e-5
17.68,199.46,11.462,99.865,0.0104489
17.70,199.54,11.462,99.866,-1.74171e-3
17.71,199.62,11.462,99.866,2.10623e-3
17.73,199.71,11.462,99.866,9.15079e-5
17.75,199.79,11.462,99.866,-7.32192e-3
17.76,199.87,11.462,99.866,-3.11168e-3
17.78,199.96,11.462,99.866,4.94506e-3
17.80,200.04,11.462,99.866,-4.57875e-4
17.81,200.12,11.462,99.866,-0.0118148
17.83,200.21,11.462,99.866,-7.14645e-3
17.85,200.29,11.462,99.866,0.0139266
17.86,200.37,11.462,99.866,1.83486e-3
17.88,200.46,11.462,99.866,4.58245e-3
17.90,200.54,11.462,99.866,2.93578e-3
17.91,200.62,11.462,99.866,1.83351e-4
17.93,200.71,11.462,99.865,-0.0136179
17.95,200.79,11.462,99.865,0.0202561
17.96,200.87,11.462,99.866,4.42678e-3
17.98,200.95,11.462,99.866,6.18374e-3
18.00,201.04,11.462,99.866,5.54220e-4
18.01,201.12,11.462,99.866,9.22509e-5
18.03,201.20,11.462,99.866,5.15803e-3
18.05,201.28,11.462,99.866,1.84033e-3
18.06,201.37,11.462,99.867,3.40287e-3
18.08,201.45,11.462,99.867,3.12889e-3
18.10,201.53,11.462,99.868,0.0121475
18.11,201.62,11.462,99.868,9.91681e-3
18.13,201.70,11.462,99.869,2.47888e-3
18.15,201.78,11.462,99.869,-0.0123697
18.16,201.87,11.463,99.869,0.0330896
18.18,201.95,11.463,99.870,8.94350e-3
18.20,202.03,11.463,99.871,-7.85368e-3
18.21,202.12,11.463,99.870,-1.82648e-4
18.23,202.20,11.463,99.870,0.0167342
18.25,202.28,11.463,99.871,5.03663e-3
18.26,202.37,11.463,99.871,8.79382e-3
18.28,202.45,11.463,99.872,3.12112e-3
18.30,202.53,11.463,99.871,-6.99202e-3
18.31,202.62,11.463,99.871,-2.11712e-3
18.33,202.70,11.463,99.872,5.53506e-4
18.35,202.78,11.463,99.872,6.46950e-3
18.36,202.86,11.463,99.872,9.23633e-4
18.38,202.95,11.463,99.872,-3.60444e-3
18.40,203.03,11.463,99.871,4.70480e-3
18.41,203.11,11.463,99.872,3.49908e-3
18.43,203.20,11.463,99.872,2.11009e-3
18.45,203.28,11.463,99.872,-1.18964e-3
18.46,203.36,11.463,99.871,2.74033e-3
18.48,203.45,11.463,99.870,9.03442e-5
18.50,203.53,11.463,99.871,0.0416938
18.51,203.61,11.463,99.873,7.00000e-3
18.53,203.70,11.463,99.873,1.72906e-3
18.55,203.78,11.463,99.873,8.10565e-3
18.56,203.86,11.463,99.873,2.55474e-3
18.58,203.95,11.463,99.873,8.48936e-3
18.60,204.03,11.463,99.874,-4.66179e-3
18.61,204.12,11.463,99.874,-8.50616e-3
18.63,204.20,11.463,99.873,-1.55741e-3
18.65,204.28,11.463,99.874,2.75128e-4
18.66,204.37,11.463,99.873,-0.0121863
18.68,204.45,11.463,99.873,2.74725e-3
18.70,204.53,11.463,99.872,-6.41311e-3
18.71,204.61,11.463,99.873,2.47199e-3
18.73,204.70,11.463,99.873,5.76725e-3
18.75,204.78,11.463,99.873,2.28877e-3
18.76,204.86,11.463,99.873,-4.20770e-3
18.78,204.95,11.463,99.873,2.19696e-3
18.80,205.03,11.463,99.873,-3.56948e-3
18.81,205.12,11.463,99.873,3.57344e-3
18.83,205.20,11.463,99.873,-7.78683e-3
18.85,205.28,11.463,99.873,1.83486e-3
18.86,205.36,11.463,99.873,8.25378e-3
18.88,205.45,11.463,99.873,-7.33945e-3
18.90,205.53,11.463,99.873,-3.75857e-3
18.91,205.61,11.463,99.873,2.76073e-4
18.93,205.70,11.463,99.873,-1.56250e-3
18.95,205.78,11.463,99.873,9.36960e-3
18.96,205.86,11.463,99.873,-0.0102793
18.98,205.95,11.463,99.873,-1.46789e-3
19.00,206.03,11.463,99.873,2.75098e-3
19.01,206.11,11.463,99.873,4.30896e-3
19.03,206.20,11.463,99.873,-5.86914e-3
19.05,206.28,11.463,99.873,2.56898e-3
19.06,206.36,11.463,99.873,7.34369e-3
19.08,206.45,11.463,99.873,3.12085e-3
19.10,206.53,11.463,99.873,1.10092e-3
19.11,206.61,11.463,99.874,5.04587e-3
19.13,206.69,11.463,99.874,2.11114e-3
19.15,206.78,11.463,99.874,9.55048e-3
19.16,206.86,11.463,99.874,-0.0101969
19.18,206.94,11.463,99.874,-7.35463e-4
19.20,207.03,11.463,99.873,-9.64587e-3
19.21,207.11,11.463,99.874,-7.34383e-4
19.23,207.19,11.463,99.874,4.77064e-3
19.25,207.28,11.463,99.874,-6.41583e-3
19.26,207.36,11.463,99.874,3.02325e-3
19.28,207.44,11.463,99.874,7.06422e-3
19.30,207.53,11.463,99.874,9.07914e-3
19.31,207.61,11.463,99.874,2.75229e-4
19.33,207.69,11.463,99.874,-1.47028e-3
19.35,207.78,11.463,99.874,-5.32963e-3
19.36,207.86,11.463,99.874,1.74852e-3
19.38,207.94,11.463,99.874,-1.19617e-3
19.40,208.02,11.463,99.874,3.49474e-3
19.41,208.11,11.463,99.874,2.84926e-3
19.43,208.19,11.463,99.874,1.55876e-3
19.45,208.27,11.463,99.874,4.85056e-3
19.46,208.36,11.463,99.874,3.47697e-3
19.48,208.44,11.463,99.874,1.55333e-3
19.50,208.52,11.463,99.874,-2.37340e-3
19.51,208.61,11.463,99.874,4.74719e-3
19.53,208.69,11.463,99.874,-3.65514e-3
19.55,208.77,11.463,99.874,5.39827e-3
19.56,208.86,11.463,99.873,-3.93521e-3
19.58,208.94,11.463,99.874,9.06593e-3
19.60,209.02,11.463,99.874,-3.30275e-3
19.61,209.11,11.463,99.875,0.0136874
19.63,209.19,11.463,99.875,-6.62248e-3
19.65,209.27,11.463,99.875,-4.60083e-3
19.66,209.36,11.463,99.875,3.95640e-3
19.68,209.44,11.463,99.875,-1.93180e-3
19.70,209.52,11.463,99.875,-7.36138e-4
19.71,209.61,11.463,99.875,1.37746e-3
19.73,209.69,11.463,99.876,8.26497e-4
19.75,209.77,11.463,99.876,3.30417e-3
19.76,209.85,11.463,99.876,-0.0105566
19.78,209.94,11.463,99.875,9.16523e-4
19.80,210.02,11.463,99.876,-3.20731e-3
19.81,210.10,11.463,99.875,2.10891e-3
19.83,210.19,11.463,99.875,-4.21245e-3
19.85,210.27,11.463,99.875,-3.38550e-3
19.86,210.35,11.463,99.875,2.56159e-3
19.88,210.44,11.463,99.875,-0.0141103
19.90,210.52,11.463,99.874,5.68807e-3
19.91,210.60,11.463,99.875,-6.16035e-3
19.93,210.69,11.463,99.874,3.67985e-4
19.95,210.77,11.463,99.874,2.94118e-3
19.96,210.85,11.463,99.874,-9.63879e-3
19.98,210.94,11.463,99.874,5.96330e-3
20.00,211.02,11.463,99.875,-5.13086e-3
20.01,211.10,11.463,99.875,-1.28158e-3
20.03,211.19,11.463,99.874,-3.84793e-3
20.05,211.27,11.463,99.875,0.0102712
20.06,211.35,11.463,99.875,-5.69613e-3
20.08,211.44,11.463,99.876,2.94131e-3
20.10,211.52,11.463,99.875,2.21083e-3
20.11,211.60,11.463,99.875,4.24228e-3
20.13,211.68,11.463,99.876,-3.41026e-3
20.15,211.77,11.463,99.875,1.65617e-3
20.16,211.85,11.463,99.875,2.20450e-3
20.18,211.93,11.463,99.876,-6.50287e-3
20.20,212.02,11.463,99.875,-6.39486e-4
20.21,212.10,11.463,99.875,9.12076e-4
20.23,212.18,11.463,99.876,-9.09587e-4
20.25,212.27,11.463,99.876,3.27065e-3
20.26,212.35,11.463,99.876,-6.35209e-4
20.28,212.44,11.463,99.876,-2.63570e-3
20.30,212.52,11.463,99.875,-7.64169e-3
20.31,212.60,11.463,99.875,3.91787e-3
20.33,212.69,11.463,99.875,6.02140e-3
20.35,212.77,11.463,99.875,3.65574e-3
20.36,212.85,11.463,99.876,2.74189e-4
20.38,212.94,11.463,99.875,4.75989e-3
20.40,213.02,11.463,99.875,7.33541e-3
20.41,213.10,11.463,99.875,-1.47005e-3
20.43,213.19,11.463,99.875,8.27206e-4
20.45,213.27,11.463,99.875,-6.61954e-3
20.46,213.35,11.463,99.876,4.13829e-3
20.48,213.44,11.463,99.876,-8.36397e-3
20.50,213.52,11.463,99.875,1.83790e-4
20.51,213.60,11.463,99.875,3.68249e-4
20.53,213.69,11.463,99.875,5.49953e-4
20.55,213.77,11.463,99.875,-3.19927e-3
20.56,213.85,11.463,99.876,-0.0104159
20.58,213.94,11.463,99.875,-8.22167e-4
20.60,214.02,11.463,99.875,-3.93297e-3
20.61,214.10,11.463,99.874,-5.12495e-3
20.63,214.19,11.463,99.875,-9.20791e-5
20.65,214.27,11.463,99.876,0.0127643
20.66,214.35,11.463,99.876,-1.84399e-4
20.68,214.44,11.463,99.876,4.41823e-3
20.70,214.52,11.463,99.876,-8.83043e-3
20.71,214.60,11.463,99.876,-6.52296e-3
20.73,214.68,11.463,99.876,-5.77292e-3
20.75,214.77,11.463,99.874,6.03715e-3
20.76,214.85,11.463,99.876,5.37341e-3
20.78,214.94,11.463,99.876,-4.54545e-4
20.80,215.02,11.463,99.875,-6.71747e-3
20.81,215.10,11.463,99.875,2.81313e-3
20.83,215.19,11.463,99.876,-9.08430e-4
20.85,215.27,11.463,99.875,4.27802e-3
20.86,215.35,11.463,99.876,-6.38686e-4
20.88,215.44,11.463,99.875,-1.65127e-3
20.90,215.52,11.463,99.875,1.83520e-4
20.91,215.60,11.463,99.875,-0.0237346
20.93,215.69,11.463,99.875,0.0102301
20.95,215.77,11.463,99.875,2.12177e-3
20.96,215.85,11.463,99.875,3.77906e-3
20.98,215.94,11.463,99.875,-1.74818e-3
21.00,216.02,11.463,99.876,2.11583e-3
21.01,216.10,11.463,99.876,-7.53676e-3
21.03,216.18,11.463,99.875,3.66811e-3
21.05,216.27,11.463,99.876,-8.24847e-4
21.06,216.35,11.463,99.876,-5.94150e-3
21.08,216.43,11.463,99.876,9.68550e-3
21.10,216.52,11.463,99.876,-2.18961e-3
21.11,216.60,11.463,99.876,-5.10949e-3
21.13,216.69,11.463,99.876,9.21533e-3
21.15,216.77,11.463,99.876,-8.22669e-3
21.16,216.85,11.463,99.876,5.03160e-3
21.18,216.94,11.463,99.876,-4.75698e-3
21.20,217.02,11.463,99.876,4.39970e-3
21.21,217.10,11.463,99.876,-8.16066e-3
21.23,217.19,11.463,99.876,1.83486e-4
21.25,217.27,11.463,99.875,-0.0107287
21.26,217.35,11.463,99.875,-3.66619e-3
21.28,217.44,11.463,99.875,0.0102595
21.30,217.52,11.463,99.875,-1.18977e-3
21.31,217.60,11.463,99.875,7.59015e-3
21.33,217.69,11.463,99.876,-7.30994e-3
21.35,217.77,11.463,99.875,-0.0146200
21.36,217.85,11.463,99.875,5.57587e-3
21.38,217.94,11.463,99.876,2.92635e-3
21.40,218.02,11.463,99.875,-0.0133578
21.41,218.10,11.463,99.873,-0.0150129
21.43,218.19,11.463,99.872,-0.0248845
21.45,218.27,11.463,99.869,-0.0194873
21.46,218.35,11.462,99.867,-0.0387363
21.48,218.44,11.462,99.865,-0.0235244
21.50,218.52,11.462,99.863,-0.0208901
21.51,218.60,11.462,99.861,-7.79322e-3
21.53,218.69,11.462,99.860,-6.51723e-3
21.55,218.77,11.462,99.860,-7.80305e-3
21.56,218.85,11.461,99.859,-0.0204811
21.58,218.94,11.461,99.857,-9.56203e-3
21.60,219.02,11.461,99.857,-7.08136e-3
21.61,219.10,11.461,99.855,-0.0161968
21.63,219.18,11.461,99.854,-9.85640e-3
21.65,219.27,11.461,99.854,-0.0105988
21.66,219.35,11.461,99.852,-9.21931e-4
21.68,219.43,11.461,99.852,-0.0137201
21.70,219.52,11.460,99.851,-0.0105815
21.71,219.60,11.460,99.851,-0.0110294
21.73,219.68,11.460,99.850,-6.97959e-3
21.75,219.76,11.460,99.850,-1.10018e-3
21.76,219.85,11.460,99.849,1.83264e-3
21.78,219.93,11.460,99.849,-5.39790e-3
21.80,220.01,11.460,99.849,-3.38493e-3
21.81,220.10,11.460,99.849,-0.0106166
21.83,220.18,11.460,99.848,-3.29476e-3
21.85,220.26,11.460,99.847,-6.59193e-3
21.86,220.35,11.460,99.847,1.18937e-3
21.88,220.43,11.460,99.847,1.00605e-3
21.90,220.51,11.460,99.847,-2.28713e-3
21.91,220.60,11.460,99.847,1.92133e-3
21.93,220.68,11.460,99.847,-1.09860e-3
21.95,220.76,11.460,99.847,-5.13116e-3
21.96,220.85,11.460,99.846,-1.19232e-3
21.98,220.93,11.460,99.846,-7.89695e-3
22.00,221.01,11.460,99.846,-4.41643e-3
22.01,221.10,11.460,99.846,-1.56250e-3
22.03,221.18,11.460,99.846,-2.11397e-3
22.05,221.26,11.460,99.846,1.83183e-4
22.06,221.35,11.460,99.846,-7.78992e-3
22.08,221.43,11.460,99.846,5.67470e-3
22.10,221.51,11.460,99.846,5.48613e-4
22.11,221.60,11.460,99.846,7.57962e-3
22.13,221.68,11.460,99.846,6.03073e-3
22.15,221.76,11.460,99.846,2.00953e-3
22.16,221.85,11.460,99.845,-5.39305e-3
22.18,221.93,11.460,99.845,-7.77253e-3
22.20,222.01,11.460,99.845,3.01906e-3
22.21,222.10,11.460,99.845,-3.38576e-3
22.23,222.18,11.460,99.845,-6.77890e-3
22.25,222.26,11.460,99.845,4.59085e-4
22.26,222.35,11.460,99.844,-4.68018e-3
22.28,222.43,11.460,99.844,4.32195e-3
22.30,222.51,11.460,99.844,6.17031e-3
22.31,222.60,11.460,99.845,-7.10751e-3
22.33,222.68,11.460,99.844,2.77606e-4
22.35,222.76,11.460,99.844,-7.21574e-3
22.36,222.84,11.460,99.844,-4.15896e-3
22.38,222.93,11.460,99.844,-0.0233395
22.40,223.01,11.460,99.843,-6.16736e-3
22.41,223.09,11.459,99.842,-0.0190936
22.43,223.17,11.459,99.842,-0.0114778
22.45,223.26,11.459,99.841,4.68352e-3
22.46,223.34,11.459,99.841,-6.33621e-3
22.48,223.42,11.459,99.840,-2.39411e-3
22.49,223.47,11.459,99.840,-1.38122e-3