File: instrument_data/TGA/Co(phen)2(SCN)2 electromagnet RT-325-10011142022.csv
Filename,Co(phen)2(SCN)2 electromagnet RT-325-10011142022
Instrument name,5500-0566 (192.168.10.4)
Operator,Adam K
rundate,11/14/2022
Sample name,Co(phen)2(SCN)2 electromagnet RT-325-100
proceduresegments,Equilibrate 120.00 °C; Isothermal 1.0 min; Electromagnet On 100.0 %; Equilibrate 120.00 °C; Ramp 5.00 °C/min to 325.00 °C; Ramp 5.00 °C/min to 100.00 °C; Equilibrate 100.00 °C
[File Parameters]
Run date,11/14/2022 2:11:32 PM
Trios version,5.3.0.48151
Original File Name,C:\ProgramData\TA Instruments\TRIOS\Data\CH302_B3_22_AK\Co(phen)2(SCN)2 electromagnet RT-325-10011142022.tri
Current File Name,C:/ProgramData/TA Instruments/TRIOS/Data/CH302_B3_22_AK/Co(phen)2(SCN)2 electromagnet RT-325-10011142022.tri
User at run start,CH-CBWNNF3-0721\ChemLocal
[Procedure]
Procedure Name,
Sample Name,Co(phen)2(SCN)2 electromagnet RT-325-100
Pan Number,1
Sample Mass,12.230 mg
Pan Type,Aluminum
Comments,
Project Name,Spin Crossover
Operator,Adam K
Test,Custom
Skip Weight Stabilization,False
Sample mass pre-weigh,Not Available
Stop on Gas Flow Error,No
[Signal List]
Signal #1,Time (min)
Signal #2,Temperature (°C)
Signal #3,Weight (mg)
Signal #4,Temperature Difference (°C)
Signal #5,Sample Purge (mL/min)
Signal #6,Balance Purge (mL/min)
Signal #7,Set Point Temperature (°C)
Signal #8,Power Delivered (W)
Signal #9,Ramp Rate (°C/min)
[Configuration]
Company Name,localcc
Instrument Name,5500-0566
Instrument Type,TGA5500
Serial Number,5500-0566
IP,192.168.10.4
Location of Instrument,Olin Hall Rm 364
DisplayType,TianmaV2
Sample Interval ,0.1 s/pt
Gas 1,Nitrogen
Gas 2,Air
Selected Gas Channel,1
MTGA HiRes Licensed,Yes
[Versions]
Common IDD Version,1
Cortex Version,VER 2.1.2.60
Driver,5.0.0.6
GDM Version,1.2.1.2
TouchscreenVersion,1.0.3.1795
PCU Version,1.2.0.15
Transducer Version,1.1.0.32
[Experiment Logs]
Experiment Log Entry # 1,Equilibrate Segment 120 (C) Started
Experiment Log Entry # 3,Isothermal Segment 1 min started
Experiment Log Entry # 5,"Curie Magnet Segment enable 1, 100 %"
Experiment Log Entry # 7,Equilibrate Segment 120 (C) Started
Experiment Log Entry # 9,Ramp Segment 5 C/min to 325 C Started
Experiment Log Entry # 11,Ending Experiment because of critical or major error
Experiment Log Entry # 13,Curie Coil error
[Method Log]
Method Log Entry # 1,Equilibrate 120 °C
Method Log Entry # 2,Isothermal 1 minutes
Method Log Entry # 3,Electromagnet On 100 %
Method Log Entry # 4,Equilibrate 120 °C
Method Log Entry # 5,(Ramp 1884) Ramp 5 °C/minute to 325 °C
[Weight Calibration]
Date Applied,7/20/2022 10:21:44 AM
Empty Pan Number,23
Empty Pan Weight,341.358 mg
Low Reference Weight Pan Number,24
Low Reference Weight,442.546 mg
High Reference Weight Pan Number,25
High Reference Weight,"1,243.774 mg"
Low Gain Meter Reading,9.9772E-006 mg/count
High Gain Meter Reading,7.9459E-005 mg/count
Low Meter Offset,31.8759 mg
High Meter Offset,613.7978 mg
[Curie Calibration]
Date Applied,8/11/2021 12:40:46 PM
Description,From 256.990 °C to 456.990 °C at 20.000°C/min
Gas Type,Nitrogen
Pan Type,Platinum (100 uL)
Source Files 1,C:\ProgramData\TA Instruments\TRIOS\Data\Nickel Calibration.tri
Source Files 2,C:\ProgramData\TA Instruments\TRIOS\Data\Alumel Calibration.tri
Measured 1,158.9083
Known 1,154.16
Measured 2,358.1255
Known 2,356.99
[step]
Isothermal 1.0 min
Time,Temperature,Weight,Weight
min,°C,mg,%
0.00,120.11,12.182,99.609
0.00,120.11,12.182,99.609
0.00,120.11,12.182,99.609
0.01,120.11,12.182,99.609
0.01,120.12,12.182,99.609
0.01,120.12,12.182,99.610
0.01,120.12,12.182,99.610
0.01,120.12,12.182,99.610
0.01,120.12,12.182,99.609
0.01,120.12,12.182,99.609
0.02,120.12,12.182,99.609
0.02,120.12,12.182,99.609
0.02,120.13,12.182,99.609
0.02,120.13,12.182,99.609
0.02,120.13,12.182,99.609
0.03,120.13,12.182,99.609
0.03,120.13,12.182,99.609
0.03,120.13,12.182,99.610
0.03,120.13,12.182,99.610
0.03,120.13,12.182,99.610
0.03,120.14,12.182,99.609
0.03,120.14,12.182,99.609
0.04,120.14,12.182,99.610
0.04,120.14,12.182,99.610
0.04,120.14,12.182,99.610
0.04,120.14,12.182,99.610
0.04,120.14,12.182,99.610
0.05,120.14,12.182,99.610
0.05,120.14,12.182,99.610
0.05,120.15,12.182,99.610
0.05,120.15,12.182,99.610
0.05,120.15,12.182,99.610
0.05,120.15,12.182,99.610
0.05,120.15,12.182,99.610
0.06,120.15,12.182,99.610
0.06,120.15,12.182,99.609
0.06,120.15,12.182,99.609
0.06,120.15,12.182,99.609
0.06,120.16,12.182,99.609
0.07,120.16,12.182,99.609
0.07,120.16,12.182,99.609
0.07,120.16,12.182,99.609
0.07,120.16,12.182,99.609
0.07,120.16,12.182,99.609
0.07,120.16,12.182,99.609
0.08,120.16,12.182,99.609
0.08,120.17,12.182,99.609
0.08,120.17,12.182,99.609
0.08,120.17,12.182,99.609
0.08,120.17,12.182,99.609
0.08,120.17,12.182,99.609
0.08,120.17,12.182,99.609
0.09,120.17,12.182,99.609
0.09,120.17,12.182,99.609
0.09,120.17,12.182,99.609
0.09,120.17,12.182,99.608
0.09,120.18,12.182,99.608
0.09,120.18,12.182,99.608
0.10,120.18,12.182,99.608
0.10,120.18,12.182,99.608
0.10,120.18,12.182,99.608
0.10,120.18,12.182,99.608
0.10,120.18,12.182,99.608
0.11,120.18,12.182,99.608
0.11,120.18,12.182,99.608
0.11,120.19,12.182,99.608
0.11,120.19,12.182,99.608
0.11,120.19,12.182,99.608
0.11,120.19,12.182,99.608
0.12,120.19,12.182,99.608
0.12,120.19,12.182,99.608
0.12,120.19,12.182,99.608
0.12,120.19,12.182,99.608
0.12,120.19,12.182,99.608
0.12,120.19,12.182,99.608
0.13,120.20,12.182,99.608
0.13,120.20,12.182,99.608
0.13,120.20,12.182,99.608
0.13,120.20,12.182,99.607
0.13,120.20,12.182,99.607
0.13,120.20,12.182,99.607
0.14,120.20,12.182,99.607
0.14,120.20,12.182,99.607
0.14,120.20,12.182,99.607
0.14,120.20,12.182,99.607
0.14,120.21,12.182,99.607
0.14,120.21,12.182,99.607
0.14,120.21,12.182,99.607
0.15,120.21,12.182,99.607
0.15,120.21,12.182,99.607
0.15,120.21,12.182,99.607
0.15,120.21,12.182,99.607
0.15,120.21,12.182,99.607
0.16,120.21,12.182,99.607
0.16,120.21,12.182,99.607
0.16,120.21,12.182,99.607
0.16,120.22,12.182,99.607
0.16,120.22,12.182,99.607
0.16,120.22,12.182,99.607
0.16,120.22,12.182,99.607
0.17,120.22,12.182,99.607
0.17,120.22,12.182,99.607
0.17,120.22,12.182,99.607
0.17,120.22,12.182,99.607
0.17,120.22,12.182,99.606
0.18,120.22,12.182,99.606
0.18,120.22,12.182,99.606
0.18,120.23,12.182,99.607
0.18,120.23,12.182,99.607
0.18,120.23,12.182,99.607
0.18,120.23,12.182,99.607
0.19,120.23,12.182,99.607
0.19,120.23,12.182,99.607
0.19,120.23,12.182,99.607
0.19,120.23,12.182,99.607
0.19,120.23,12.182,99.607
0.19,120.23,12.182,99.607
0.19,120.23,12.182,99.606
0.20,120.23,12.182,99.606
0.20,120.24,12.182,99.606
0.20,120.24,12.182,99.606
0.20,120.24,12.182,99.606
0.20,120.24,12.182,99.606
0.21,120.24,12.182,99.606
0.21,120.24,12.182,99.606
0.21,120.24,12.182,99.606
0.21,120.24,12.182,99.606
0.21,120.24,12.182,99.606
0.21,120.24,12.182,99.606
0.21,120.24,12.182,99.606
0.22,120.24,12.182,99.606
0.22,120.25,12.182,99.606
0.22,120.25,12.182,99.606
0.22,120.25,12.182,99.606
0.22,120.25,12.182,99.606
0.23,120.25,12.182,99.606
0.23,120.25,12.182,99.606
0.23,120.25,12.182,99.606
0.23,120.25,12.182,99.606
0.23,120.25,12.182,99.606
0.23,120.25,12.182,99.606
0.24,120.25,12.182,99.606
0.24,120.25,12.182,99.606
0.24,120.25,12.182,99.606
0.24,120.26,12.182,99.606
0.24,120.26,12.182,99.606
0.24,120.26,12.182,99.606
0.24,120.26,12.182,99.606
0.25,120.26,12.182,99.606
0.25,120.26,12.182,99.606
0.25,120.26,12.182,99.606
0.25,120.26,12.182,99.606
0.25,120.26,12.182,99.606
0.26,120.26,12.182,99.606
0.26,120.26,12.182,99.606
0.26,120.26,12.182,99.606
0.26,120.26,12.182,99.606
0.26,120.26,12.182,99.606
0.26,120.27,12.182,99.606
0.26,120.27,12.182,99.606
0.27,120.27,12.182,99.606
0.27,120.27,12.182,99.606
0.27,120.27,12.182,99.606
0.27,120.27,12.182,99.606
0.27,120.27,12.182,99.605
0.28,120.27,12.182,99.605
0.28,120.27,12.182,99.605
0.28,120.27,12.182,99.605
0.28,120.27,12.182,99.605
0.28,120.27,12.182,99.605
0.28,120.27,12.182,99.605
0.29,120.27,12.182,99.605
0.29,120.27,12.182,99.605
0.29,120.28,12.182,99.605
0.29,120.28,12.182,99.605
0.29,120.28,12.182,99.605
0.29,120.28,12.182,99.605
0.30,120.28,12.182,99.605
0.30,120.28,12.182,99.605
0.30,120.28,12.182,99.605
0.30,120.28,12.182,99.605
0.30,120.28,12.182,99.605
0.30,120.28,12.182,99.605
0.30,120.28,12.182,99.605
0.31,120.28,12.182,99.605
0.31,120.28,12.182,99.605
0.31,120.28,12.182,99.605
0.31,120.28,12.182,99.605
0.31,120.28,12.181,99.605
0.31,120.28,12.181,99.605
0.32,120.29,12.181,99.605
0.32,120.29,12.181,99.605
0.32,120.29,12.181,99.604
0.32,120.29,12.181,99.604
0.32,120.29,12.181,99.604
0.33,120.29,12.181,99.604
0.33,120.29,12.181,99.604
0.33,120.29,12.181,99.604
0.33,120.29,12.181,99.604
0.33,120.29,12.181,99.604
0.33,120.29,12.181,99.604
0.34,120.29,12.181,99.604
0.34,120.29,12.181,99.604
0.34,120.29,12.181,99.604
0.34,120.29,12.181,99.604
0.34,120.29,12.181,99.604
0.34,120.29,12.181,99.604
0.35,120.29,12.181,99.604
0.35,120.30,12.181,99.604
0.35,120.30,12.181,99.604
0.35,120.30,12.181,99.604
0.35,120.30,12.181,99.604
0.35,120.30,12.181,99.604
0.35,120.30,12.181,99.604
0.36,120.30,12.181,99.604
0.36,120.30,12.181,99.604
0.36,120.30,12.181,99.604
0.36,120.30,12.181,99.604
0.36,120.30,12.181,99.604
0.36,120.30,12.181,99.604
0.37,120.30,12.181,99.604
0.37,120.30,12.181,99.604
0.37,120.30,12.181,99.604
0.37,120.30,12.181,99.604
0.37,120.30,12.181,99.604
0.38,120.30,12.181,99.604
0.38,120.30,12.181,99.604
0.38,120.30,12.181,99.604
0.38,120.31,12.181,99.604
0.38,120.31,12.181,99.604
0.38,120.31,12.181,99.604
0.39,120.31,12.181,99.604
0.39,120.31,12.181,99.604
0.39,120.31,12.181,99.604
0.39,120.31,12.181,99.604
0.39,120.31,12.181,99.604
0.39,120.31,12.181,99.604
0.40,120.31,12.181,99.604
0.40,120.31,12.181,99.604
0.40,120.31,12.181,99.604
0.40,120.31,12.181,99.604
0.40,120.31,12.181,99.604
0.40,120.31,12.181,99.604
0.40,120.31,12.181,99.604
0.41,120.31,12.181,99.604
0.41,120.31,12.181,99.604
0.41,120.31,12.181,99.604
0.41,120.31,12.181,99.604
0.41,120.31,12.181,99.604
0.41,120.32,12.181,99.604
0.42,120.32,12.181,99.604
0.42,120.32,12.181,99.604
0.42,120.32,12.181,99.604
0.42,120.32,12.181,99.604
0.42,120.32,12.181,99.604
0.43,120.32,12.181,99.604
0.43,120.32,12.181,99.604
0.43,120.32,12.181,99.604
0.43,120.32,12.181,99.604
0.43,120.32,12.181,99.604
0.43,120.32,12.181,99.604
0.44,120.32,12.181,99.604
0.44,120.32,12.181,99.604
0.44,120.32,12.181,99.604
0.44,120.32,12.181,99.604
0.44,120.32,12.181,99.604
0.44,120.32,12.181,99.604
0.45,120.32,12.181,99.604
0.45,120.32,12.181,99.604
0.45,120.32,12.181,99.604
0.45,120.32,12.181,99.604
0.45,120.32,12.181,99.604
0.45,120.33,12.181,99.603
0.45,120.33,12.181,99.603
0.46,120.33,12.181,99.603
0.46,120.33,12.181,99.603
0.46,120.33,12.181,99.603
0.46,120.33,12.181,99.603
0.46,120.33,12.181,99.603
0.46,120.33,12.181,99.603
0.47,120.33,12.181,99.603
0.47,120.33,12.181,99.603
0.47,120.33,12.181,99.603
0.47,120.33,12.181,99.603
0.47,120.33,12.181,99.603
0.48,120.33,12.181,99.603
0.48,120.33,12.181,99.603
0.48,120.33,12.181,99.603
0.48,120.33,12.181,99.603
0.48,120.33,12.181,99.603
0.48,120.33,12.181,99.603
0.49,120.33,12.181,99.603
0.49,120.33,12.181,99.603
0.49,120.33,12.181,99.603
0.49,120.33,12.181,99.603
0.49,120.33,12.181,99.603
0.49,120.33,12.181,99.603
0.50,120.33,12.181,99.603
0.50,120.34,12.181,99.603
0.50,120.34,12.181,99.603
0.50,120.34,12.181,99.603
0.50,120.34,12.181,99.603
0.50,120.34,12.181,99.603
0.50,120.34,12.181,99.603
0.51,120.34,12.181,99.603
0.51,120.34,12.181,99.603
0.51,120.34,12.181,99.604
0.51,120.34,12.181,99.604
0.51,120.34,12.181,99.604
0.51,120.34,12.181,99.603
0.52,120.34,12.181,99.603
0.52,120.34,12.181,99.603
0.52,120.34,12.181,99.603
0.52,120.34,12.181,99.603
0.52,120.34,12.181,99.604
0.53,120.34,12.181,99.603
0.53,120.34,12.181,99.603
0.53,120.34,12.181,99.603
0.53,120.34,12.181,99.603
0.53,120.34,12.181,99.603
0.53,120.34,12.181,99.603
0.53,120.34,12.181,99.603
0.54,120.34,12.181,99.603
0.54,120.34,12.181,99.603
0.54,120.34,12.181,99.603
0.54,120.34,12.181,99.603
0.54,120.34,12.181,99.603
0.55,120.34,12.181,99.603
0.55,120.35,12.181,99.603
0.55,120.35,12.181,99.603
0.55,120.35,12.181,99.603
0.55,120.35,12.181,99.603
0.55,120.35,12.181,99.603
0.55,120.35,12.181,99.603
0.56,120.35,12.181,99.603
0.56,120.35,12.181,99.604
0.56,120.35,12.181,99.604
0.56,120.35,12.181,99.604
0.56,120.35,12.181,99.604
0.57,120.35,12.181,99.604
0.57,120.35,12.181,99.604
0.57,120.35,12.181,99.604
0.57,120.35,12.181,99.604
0.57,120.35,12.181,99.604
0.57,120.35,12.181,99.604
0.58,120.35,12.181,99.604
0.58,120.35,12.181,99.604
0.58,120.35,12.181,99.604
0.58,120.35,12.181,99.604
0.58,120.35,12.181,99.604
0.58,120.35,12.181,99.604
0.58,120.35,12.181,99.603
0.59,120.35,12.181,99.603
0.59,120.35,12.181,99.603
0.59,120.35,12.181,99.603
0.59,120.35,12.181,99.603
0.59,120.35,12.181,99.603
0.60,120.35,12.181,99.603
0.60,120.35,12.181,99.603
0.60,120.35,12.181,99.603
0.60,120.35,12.181,99.603
0.60,120.35,12.181,99.603
0.60,120.35,12.181,99.603
0.60,120.35,12.181,99.603
0.61,120.35,12.181,99.603
0.61,120.36,12.181,99.603
0.61,120.36,12.181,99.603
0.61,120.36,12.181,99.603
0.61,120.36,12.181,99.603
0.62,120.36,12.181,99.603
0.62,120.36,12.181,99.603
0.62,120.36,12.181,99.603
0.62,120.36,12.181,99.603
0.62,120.36,12.181,99.603
0.62,120.36,12.181,99.603
0.63,120.36,12.181,99.603
0.63,120.36,12.181,99.602
0.63,120.36,12.181,99.602
0.63,120.36,12.181,99.602
0.63,120.36,12.181,99.602
0.63,120.36,12.181,99.602
0.63,120.36,12.181,99.603
0.64,120.36,12.181,99.603
0.64,120.36,12.181,99.603
0.64,120.36,12.181,99.603
0.64,120.36,12.181,99.603
0.64,120.36,12.181,99.603
0.65,120.36,12.181,99.603
0.65,120.36,12.181,99.603
0.65,120.36,12.181,99.603
0.65,120.36,12.181,99.603
0.65,120.36,12.181,99.603
0.65,120.36,12.181,99.603
0.65,120.36,12.181,99.603
0.66,120.36,12.181,99.603
0.66,120.36,12.181,99.603
0.66,120.36,12.181,99.603
0.66,120.36,12.181,99.603
0.66,120.36,12.181,99.603
0.67,120.36,12.181,99.603
0.67,120.36,12.181,99.603
0.67,120.36,12.181,99.603
0.67,120.36,12.181,99.603
0.67,120.36,12.181,99.603
0.67,120.36,12.181,99.603
0.68,120.36,12.181,99.603
0.68,120.36,12.181,99.603
0.68,120.36,12.181,99.603
0.68,120.36,12.181,99.603
0.68,120.36,12.181,99.603
0.68,120.36,12.181,99.603
0.68,120.36,12.181,99.603
0.69,120.36,12.181,99.603
0.69,120.37,12.181,99.602
0.69,120.37,12.181,99.602
0.69,120.37,12.181,99.602
0.69,120.37,12.181,99.602
0.70,120.37,12.181,99.602
0.70,120.37,12.181,99.602
0.70,120.37,12.181,99.602
0.70,120.37,12.181,99.602
0.70,120.37,12.181,99.602
0.70,120.37,12.181,99.602
0.70,120.37,12.181,99.602
0.71,120.37,12.181,99.602
0.71,120.37,12.181,99.602
0.71,120.37,12.181,99.602
0.71,120.37,12.181,99.602
0.71,120.37,12.181,99.602
0.72,120.37,12.181,99.602
0.72,120.37,12.181,99.602
0.72,120.37,12.181,99.602
0.72,120.37,12.181,99.602
0.72,120.37,12.181,99.602
0.72,120.37,12.181,99.602
0.73,120.37,12.181,99.602
0.73,120.37,12.181,99.602
0.73,120.37,12.181,99.602
0.73,120.37,12.181,99.602
0.73,120.37,12.181,99.602
0.73,120.37,12.181,99.602
0.73,120.37,12.181,99.602
0.74,120.37,12.181,99.602
0.74,120.37,12.181,99.602
0.74,120.37,12.181,99.602
0.74,120.37,12.181,99.602
0.74,120.37,12.181,99.602
0.75,120.37,12.181,99.602
0.75,120.37,12.181,99.602
0.75,120.37,12.181,99.602
0.75,120.37,12.181,99.602
0.75,120.37,12.181,99.602
0.75,120.37,12.181,99.602
0.75,120.37,12.181,99.602
0.76,120.37,12.181,99.602
0.76,120.37,12.181,99.602
0.76,120.37,12.181,99.602
0.76,120.37,12.181,99.602
0.76,120.37,12.181,99.602
0.77,120.37,12.181,99.601
0.77,120.37,12.181,99.601
0.77,120.37,12.181,99.601
0.77,120.37,12.181,99.601
0.77,120.37,12.181,99.601
0.77,120.37,12.181,99.601
0.78,120.37,12.181,99.601
0.78,120.37,12.181,99.601
0.78,120.37,12.181,99.601
0.78,120.37,12.181,99.601
0.78,120.37,12.181,99.601
0.78,120.37,12.181,99.601
0.78,120.37,12.181,99.601
0.79,120.37,12.181,99.601
0.79,120.37,12.181,99.601
0.79,120.37,12.181,99.601
0.79,120.37,12.181,99.601
0.79,120.37,12.181,99.601
0.80,120.37,12.181,99.601
0.80,120.37,12.181,99.601
0.80,120.37,12.181,99.601
0.80,120.37,12.181,99.601
0.80,120.37,12.181,99.601
0.80,120.37,12.181,99.601
0.80,120.37,12.181,99.601
0.81,120.37,12.181,99.601
0.81,120.37,12.181,99.600
0.81,120.37,12.181,99.600
0.81,120.37,12.181,99.600
0.81,120.37,12.181,99.600
0.82,120.38,12.181,99.600
0.82,120.38,12.181,99.600
0.82,120.38,12.181,99.600
0.82,120.38,12.181,99.600
0.82,120.38,12.181,99.600
0.82,120.38,12.181,99.600
0.83,120.38,12.181,99.600
0.83,120.38,12.181,99.600
0.83,120.38,12.181,99.600
0.83,120.38,12.181,99.600
0.83,120.38,12.181,99.600
0.83,120.38,12.181,99.600
0.83,120.38,12.181,99.600
0.84,120.38,12.181,99.600
0.84,120.38,12.181,99.600
0.84,120.38,12.181,99.600
0.84,120.38,12.181,99.600
0.84,120.38,12.181,99.599
0.85,120.38,12.181,99.599
0.85,120.38,12.181,99.599
0.85,120.38,12.181,99.599
0.85,120.38,12.181,99.599
0.85,120.38,12.181,99.599
0.85,120.38,12.181,99.599
0.85,120.38,12.181,99.599
0.86,120.38,12.181,99.599
0.86,120.38,12.181,99.599
0.86,120.38,12.181,99.599
0.86,120.38,12.181,99.599
0.86,120.38,12.181,99.599
0.87,120.38,12.181,99.599
0.87,120.38,12.181,99.599
0.87,120.38,12.181,99.599
0.87,120.38,12.181,99.599
0.87,120.38,12.181,99.599
0.87,120.38,12.181,99.599
0.88,120.38,12.181,99.599
0.88,120.38,12.181,99.599
0.88,120.38,12.181,99.599
0.88,120.38,12.181,99.599
0.88,120.38,12.181,99.599
0.88,120.38,12.181,99.599
0.88,120.38,12.181,99.599
0.89,120.38,12.181,99.599
0.89,120.38,12.181,99.599
0.89,120.38,12.181,99.599
0.89,120.38,12.181,99.599
0.89,120.38,12.181,99.599
0.90,120.38,12.181,99.599
0.90,120.38,12.181,99.599
0.90,120.38,12.181,99.599
0.90,120.38,12.181,99.599
0.90,120.38,12.181,99.599
0.90,120.38,12.181,99.599
0.90,120.38,12.181,99.599
0.91,120.38,12.181,99.599
0.91,120.38,12.181,99.599
0.91,120.38,12.181,99.599
0.91,120.38,12.181,99.599
0.91,120.38,12.181,99.599
0.92,120.38,12.181,99.599
0.92,120.38,12.181,99.599
0.92,120.38,12.181,99.599
0.92,120.38,12.181,99.599
0.92,120.38,12.181,99.599
0.92,120.38,12.181,99.599
0.93,120.38,12.181,99.599
0.93,120.38,12.181,99.599
0.93,120.38,12.181,99.599
0.93,120.38,12.181,99.599
0.93,120.38,12.181,99.599
0.93,120.38,12.181,99.599
0.93,120.38,12.181,99.599
0.94,120.38,12.181,99.599
0.94,120.38,12.181,99.599
0.94,120.38,12.181,99.599
0.94,120.38,12.181,99.599
0.94,120.38,12.181,99.599
0.95,120.38,12.181,99.598
0.95,120.38,12.181,99.598
0.95,120.38,12.181,99.598
0.95,120.38,12.181,99.598
0.95,120.38,12.181,99.598
0.95,120.38,12.181,99.598
0.95,120.38,12.181,99.598
0.96,120.38,12.181,99.598
0.96,120.38,12.181,99.598
0.96,120.38,12.181,99.598
0.96,120.38,12.181,99.598
0.96,120.38,12.181,99.598
0.97,120.38,12.181,99.598
0.97,120.38,12.181,99.598
0.97,120.38,12.181,99.598
0.97,120.38,12.181,99.598
0.97,120.38,12.181,99.598
0.97,120.38,12.181,99.598
0.98,120.38,12.181,99.598
0.98,120.38,12.181,99.598
0.98,120.38,12.181,99.598
0.98,120.38,12.181,99.598
0.98,120.38,12.181,99.598
0.98,120.38,12.181,99.598
0.98,120.38,12.181,99.598
0.99,120.38,12.181,99.598
0.99,120.38,12.181,99.598
0.99,120.38,12.181,99.598
0.99,120.38,12.181,99.598
0.99,120.38,12.181,99.598
1.00,120.38,12.181,99.597
1.00,120.38,12.181,99.597
1.00,120.38,12.181,99.597

[step]
Equilibrate 120.00 °C
Time,Temperature,Weight,Weight
min,°C,mg,%
1.00,120.38,12.181,99.597
1.00,120.38,12.205,99.793
1.00,120.38,12.277,100.389
1.00,120.38,12.346,100.950
1.01,120.38,12.414,101.509
1.01,120.38,12.477,102.018
1.01,120.38,12.527,102.431
1.01,120.38,12.568,102.765
1.01,120.38,12.601,103.034
1.02,120.38,12.625,103.229
1.02,120.38,12.641,103.363
1.02,120.38,12.654,103.464
1.02,120.38,12.663,103.541
1.02,120.38,12.668,103.580
1.02,120.38,12.670,103.602
1.03,120.38,12.673,103.624
1.03,120.37,12.675,103.636
1.03,120.37,12.675,103.642
1.03,120.37,12.675,103.641
1.03,120.37,12.674,103.629
1.03,120.37,12.674,103.628
1.03,120.37,12.675,103.637
1.04,120.37,12.675,103.639
1.04,120.37,12.674,103.633
1.04,120.37,12.673,103.626
1.04,120.37,12.674,103.629
1.04,120.37,12.673,103.624
1.05,120.37,12.672,103.616
1.05,120.37,12.672,103.612
1.05,120.37,12.671,103.604
1.05,120.37,12.670,103.602
1.05,120.37,12.671,103.608
1.05,120.37,12.671,103.606
1.05,120.37,12.670,103.598
1.06,120.37,12.670,103.603
1.06,120.37,12.671,103.607
1.06,120.37,12.670,103.600
1.06,120.37,12.670,103.595
1.06,120.37,12.669,103.588
1.07,120.37,12.667,103.577
1.07,120.37,12.667,103.572
1.07,120.37,12.667,103.577
1.07,120.37,12.668,103.584
1.07,120.37,12.668,103.582
1.07,120.37,12.667,103.577
1.08,120.37,12.667,103.572
1.08,120.37,12.666,103.569
1.08,120.37,12.666,103.570
1.08,120.37,12.667,103.575
1.08,120.37,12.666,103.568
1.08,120.37,12.665,103.557
1.08,120.37,12.665,103.556
1.09,120.37,12.665,103.560
1.09,120.37,12.665,103.559
1.09,120.37,12.665,103.557
1.09,120.37,12.664,103.551
1.09,120.37,12.663,103.544
1.09,120.37,12.663,103.542
1.10,120.37,12.663,103.542
1.10,120.37,12.663,103.546
1.10,120.37,12.664,103.547
1.10,120.37,12.664,103.550
1.10,120.37,12.664,103.552
1.11,120.37,12.663,103.543
1.11,120.37,12.661,103.529
1.11,120.37,12.662,103.530
1.11,120.37,12.662,103.533
1.11,120.37,12.663,103.543
1.11,120.37,12.663,103.544
1.12,120.37,12.662,103.530
1.12,120.37,12.661,103.526
1.12,120.37,12.662,103.537
1.12,120.37,12.662,103.536
1.12,120.37,12.662,103.535
1.12,120.37,12.661,103.527
1.13,120.37,12.659,103.513
1.13,120.37,12.659,103.511
1.13,120.37,12.660,103.516
1.13,120.37,12.659,103.509
1.13,120.37,12.659,103.510
1.13,120.37,12.660,103.514
1.13,120.37,12.659,103.513
1.14,120.37,12.659,103.513
1.14,120.37,12.659,103.512
1.14,120.37,12.658,103.505
1.14,120.37,12.658,103.497
1.14,120.37,12.657,103.491
1.14,120.37,12.656,103.487
1.15,120.37,12.656,103.488
1.15,120.37,12.657,103.489
1.15,120.37,12.656,103.487
1.15,120.37,12.656,103.488
1.15,120.37,12.657,103.490
1.16,120.37,12.657,103.489
1.16,120.37,12.656,103.488
1.16,120.37,12.657,103.491
1.16,120.37,12.657,103.491
1.16,120.37,12.656,103.488
1.16,120.37,12.656,103.485
1.17,120.37,12.656,103.483
1.17,120.37,12.656,103.480
1.17,120.37,12.655,103.477
1.17,120.37,12.655,103.473
1.17,120.37,12.655,103.473
1.17,120.37,12.655,103.473
1.18,120.37,12.654,103.471
1.18,120.37,12.654,103.469
1.18,120.37,12.654,103.469
1.18,120.37,12.654,103.470
1.18,120.37,12.654,103.468
1.18,120.37,12.654,103.466
1.18,120.37,12.653,103.463
1.19,120.37,12.653,103.462
1.19,120.37,12.653,103.461
1.19,120.37,12.653,103.459
1.19,120.37,12.653,103.459
1.19,120.37,12.653,103.458
1.19,120.37,12.653,103.457
1.20,120.37,12.652,103.456
1.20,120.37,12.652,103.454
1.20,120.37,12.652,103.453
1.20,120.37,12.652,103.452
1.20,120.37,12.652,103.451
1.21,120.37,12.652,103.449
1.21,120.37,12.651,103.447
1.21,120.37,12.651,103.446
1.21,120.37,12.651,103.443
1.21,120.37,12.651,103.441
1.21,120.37,12.651,103.440
1.22,120.37,12.650,103.439
1.22,120.37,12.650,103.438
1.22,120.37,12.650,103.437
1.22,120.37,12.650,103.436
1.22,120.37,12.650,103.436
1.22,120.37,12.650,103.435
1.23,120.37,12.650,103.434
1.23,120.37,12.650,103.432
1.23,120.37,12.649,103.431
1.23,120.37,12.649,103.431
1.23,120.37,12.649,103.429
1.23,120.37,12.649,103.428
1.23,120.37,12.649,103.426
1.24,120.37,12.649,103.426
1.24,120.37,12.649,103.425
1.24,120.37,12.649,103.424
1.24,120.37,12.648,103.423
1.24,120.37,12.648,103.422
1.24,120.37,12.648,103.422
1.25,120.37,12.648,103.422
1.25,120.37,12.648,103.421
1.25,120.37,12.648,103.420
1.25,120.37,12.648,103.420
1.25,120.37,12.648,103.419
1.26,120.37,12.648,103.419
1.26,120.37,12.648,103.418
1.26,120.37,12.648,103.418
1.26,120.37,12.648,103.418
1.26,120.37,12.648,103.417
1.26,120.37,12.648,103.416
1.27,120.37,12.648,103.416
1.27,120.37,12.647,103.415
1.27,120.37,12.647,103.415
1.27,120.37,12.647,103.414
1.27,120.37,12.647,103.413
1.27,120.37,12.647,103.412
1.28,120.36,12.647,103.411
1.28,120.36,12.647,103.411
1.28,120.36,12.647,103.410
1.28,120.36,12.647,103.410
1.28,120.36,12.647,103.410
1.28,120.36,12.647,103.409
1.28,120.36,12.647,103.409
1.29,120.36,12.647,103.408
1.29,120.36,12.647,103.408
1.29,120.36,12.647,103.407
1.29,120.36,12.647,103.407
1.29,120.36,12.646,103.406
1.29,120.36,12.646,103.406
1.30,120.36,12.646,103.405
1.30,120.36,12.646,103.405
1.30,120.36,12.646,103.404
1.30,120.36,12.646,103.404
1.30,120.36,12.646,103.403
1.31,120.36,12.646,103.402
1.31,120.36,12.646,103.400
1.31,120.36,12.646,103.399
1.31,120.36,12.645,103.399
1.31,120.36,12.645,103.398
1.31,120.36,12.645,103.397
1.32,120.36,12.645,103.396
1.32,120.36,12.645,103.395
1.32,120.36,12.645,103.394
1.32,120.36,12.645,103.392
1.32,120.36,12.644,103.390
1.32,120.36,12.644,103.390
1.33,120.36,12.644,103.389
1.33,120.36,12.644,103.388
1.33,120.36,12.644,103.388
1.33,120.36,12.644,103.387
1.33,120.36,12.644,103.386
1.33,120.36,12.644,103.384
1.33,120.36,12.644,103.384
1.34,120.36,12.644,103.383
1.34,120.36,12.644,103.383
1.34,120.36,12.643,103.382
1.34,120.36,12.643,103.380
1.34,120.36,12.643,103.378
1.34,120.36,12.643,103.376
1.35,120.36,12.643,103.375
1.35,120.36,12.643,103.375
1.35,120.36,12.642,103.374
1.35,120.36,12.642,103.372
1.35,120.36,12.642,103.370
1.36,120.36,12.642,103.369
1.36,120.36,12.642,103.368
1.36,120.36,12.642,103.368
1.36,120.36,12.642,103.367
1.36,120.36,12.642,103.366
1.36,120.36,12.641,103.365
1.37,120.36,12.641,103.365
1.37,120.36,12.641,103.364
1.37,120.36,12.641,103.363
1.37,120.36,12.641,103.362
1.37,120.36,12.641,103.362
1.37,120.36,12.641,103.361
1.38,120.36,12.641,103.359
1.38,120.36,12.641,103.359
1.38,120.36,12.640,103.358
1.38,120.36,12.640,103.356
1.38,120.36,12.640,103.355
1.38,120.36,12.640,103.354
1.38,120.36,12.640,103.353
1.39,120.36,12.640,103.353
1.39,120.36,12.640,103.352
1.39,120.36,12.640,103.351
1.39,120.35,12.640,103.350
1.39,120.35,12.639,103.349
1.39,120.35,12.639,103.348
1.40,120.35,12.639,103.348
1.40,120.35,12.639,103.347
1.40,120.35,12.639,103.346
1.40,120.35,12.639,103.345
1.40,120.35,12.639,103.344
1.41,120.35,12.639,103.343
1.41,120.35,12.639,103.342
1.41,120.35,12.638,103.341
1.41,120.35,12.638,103.340
1.41,120.35,12.638,103.339
1.41,120.35,12.638,103.338
1.42,120.35,12.638,103.337
1.42,120.35,12.638,103.336
1.42,120.35,12.638,103.335
1.42,120.35,12.638,103.334
1.42,120.35,12.637,103.333
1.42,120.35,12.637,103.332
1.43,120.35,12.637,103.331
1.43,120.35,12.637,103.330
1.43,120.35,12.637,103.329
1.43,120.35,12.637,103.328
1.43,120.35,12.637,103.327
1.43,120.35,12.637,103.326
1.43,120.35,12.636,103.325
1.44,120.35,12.636,103.324
1.44,120.35,12.636,103.323
1.44,120.35,12.636,103.322
1.44,120.35,12.636,103.321
1.44,120.35,12.636,103.320
1.44,120.35,12.636,103.319
1.45,120.35,12.636,103.318
1.45,120.35,12.635,103.316
1.45,120.35,12.635,103.315
1.45,120.35,12.635,103.314
1.45,120.35,12.635,103.313
1.46,120.35,12.635,103.312
1.46,120.35,12.635,103.311
1.46,120.35,12.635,103.310
1.46,120.35,12.634,103.308
1.46,120.35,12.634,103.307
1.46,120.35,12.634,103.306
1.47,120.35,12.634,103.306
1.47,120.35,12.634,103.305
1.47,120.35,12.634,103.304
1.47,120.35,12.634,103.303
1.47,120.34,12.634,103.302
1.47,120.34,12.634,103.301
1.48,120.34,12.633,103.300
1.48,120.34,12.633,103.299
1.48,120.34,12.633,103.298
1.48,120.34,12.633,103.297
1.48,120.34,12.633,103.296
1.48,120.34,12.633,103.294
1.48,120.34,12.633,103.293
1.49,120.34,12.632,103.291
1.49,120.34,12.632,103.289
1.49,120.34,12.632,103.288
1.49,120.34,12.632,103.287
1.49,120.34,12.632,103.286
1.49,120.34,12.632,103.285
1.50,120.34,12.631,103.284
1.50,120.34,12.631,103.283
1.50,120.34,12.631,103.282
1.50,120.34,12.631,103.280
1.50,120.34,12.631,103.279
1.51,120.34,12.631,103.278
1.51,120.34,12.631,103.277
1.51,120.34,12.631,103.276
1.51,120.34,12.630,103.275
1.51,120.34,12.630,103.274
1.51,120.34,12.630,103.273
1.52,120.34,12.630,103.272
1.52,120.34,12.630,103.270
1.52,120.34,12.630,103.269
1.52,120.34,12.629,103.267
1.52,120.34,12.629,103.266
1.52,120.34,12.629,103.265
1.53,120.34,12.629,103.264
1.53,120.34,12.629,103.263
1.53,120.34,12.629,103.262

[step]
Ramp 5.00 °C/min to 325.00 °C
Time,Temperature,Weight,Weight,Deriv. Weight
min,°C,mg,%,% / °C
1.53,120.34,12.629,103.261,4.09208
1.53,120.33,12.628,103.258,3.81761
1.54,120.33,12.628,103.256,3.68474
1.54,120.33,12.628,103.254,3.69115
1.54,120.33,12.628,103.252,3.68793
1.55,120.33,12.627,103.250,3.89733
1.55,120.33,12.627,103.247,4.13952
1.55,120.33,12.627,103.245,4.99391
1.56,120.33,12.626,103.242,5.42728
1.56,120.33,12.626,103.239,4.01215
1.56,120.33,12.626,103.237,4.07492
1.57,120.33,12.625,103.235,4.09486
1.57,120.33,12.625,103.233,4.41401
1.57,120.33,12.625,103.231,5.87013
1.58,120.33,12.625,103.227,7.69649
1.58,120.33,12.624,103.224,5.75679
1.58,120.33,12.624,103.222,5.32496
1.59,120.33,12.624,103.220,6.00700
1.59,120.33,12.623,103.218,7.33370
1.59,120.33,12.623,103.216,8.66236
1.60,120.33,12.623,103.213,9.84443
1.60,120.33,12.623,103.211,12.9928
1.60,120.33,12.622,103.209,18.9589
1.61,120.33,12.622,103.207,46.3982
1.61,120.33,12.622,103.205,-43.0072
1.61,120.33,12.622,103.202,-20.4524
1.62,120.33,12.621,103.200,-12.1782
1.62,120.33,12.621,103.198,-8.51874
1.62,120.33,12.621,103.196,-8.22179
1.63,120.33,12.620,103.193,-6.04485
1.63,120.33,12.620,103.191,-4.17016
1.63,120.33,12.620,103.188,-4.42050
1.64,120.33,12.619,103.185,-4.02081
1.64,120.33,12.619,103.183,-2.69806
1.64,120.33,12.619,103.181,-2.32763
1.65,120.33,12.619,103.179,-2.92421
1.65,120.33,12.618,103.176,-2.49767
1.65,120.33,12.618,103.173,-1.89631
1.66,120.33,12.618,103.171,-1.71033
1.66,120.34,12.617,103.169,-1.51189
1.66,120.34,12.617,103.167,-1.67368
1.67,120.34,12.617,103.163,-2.57212
1.67,120.34,12.616,103.158,-2.01509
1.67,120.34,12.616,103.156,-1.13881
1.68,120.34,12.616,103.154,-1.04842
1.68,120.35,12.615,103.152,-0.991835
1.68,120.35,12.615,103.150,-0.960472
1.69,120.35,12.615,103.148,-0.949678
1.69,120.35,12.615,103.145,-0.878156
1.69,120.36,12.614,103.143,-0.802692
1.70,120.36,12.614,103.141,-0.761664
1.70,120.36,12.614,103.139,-0.742571
1.70,120.36,12.613,103.137,-0.991657
1.71,120.37,12.613,103.133,-1.16157
1.71,120.37,12.613,103.130,-0.785570
1.71,120.37,12.612,103.128,-0.648786
1.72,120.38,12.612,103.126,-0.621040
1.72,120.38,12.612,103.123,-0.605831
1.72,120.38,12.612,103.121,-0.581032
1.73,120.39,12.611,103.119,-0.557379
1.73,120.39,12.611,103.117,-0.554442
1.73,120.40,12.611,103.114,-0.544384
1.74,120.40,12.610,103.112,-0.522341
1.74,120.40,12.610,103.110,-0.492060
1.74,120.41,12.610,103.108,-0.458409
1.75,120.41,12.610,103.106,-0.444852
1.75,120.42,12.609,103.103,-0.441141
1.75,120.42,12.609,103.101,-0.444760
1.76,120.43,12.609,103.099,-0.438074
1.76,120.43,12.609,103.097,-0.406415
1.76,120.44,12.608,103.095,-0.381697
1.77,120.45,12.608,103.092,-0.382883
1.77,120.45,12.608,103.090,-0.364934
1.77,120.46,12.608,103.088,-0.360004
1.78,120.46,12.607,103.086,-0.343454
1.78,120.47,12.607,103.084,-0.356478
1.78,120.48,12.607,103.082,-0.346198
1.79,120.48,12.606,103.080,-0.328579
1.79,120.49,12.606,103.077,-0.332248
1.79,120.50,12.606,103.075,-0.317698
1.80,120.50,12.606,103.073,-0.304038
1.80,120.51,12.605,103.071,-0.287120
1.80,120.52,12.605,103.069,-0.294308
1.81,120.52,12.605,103.067,-0.274421
1.81,120.53,12.605,103.065,-0.279742
1.81,120.54,12.604,103.062,-0.330400
1.82,120.55,12.604,103.060,-0.289239
1.82,120.55,12.604,103.058,-0.258732
1.82,120.56,12.604,103.056,-0.268097
1.83,120.57,12.603,103.053,-0.267431
1.83,120.58,12.603,103.051,-0.246713
1.83,120.59,12.603,103.049,-0.257935
1.84,120.60,12.602,103.047,-0.326454
1.84,120.61,12.602,103.044,-0.284930
1.84,120.61,12.602,103.042,-0.236935
1.85,120.62,12.602,103.039,-0.242589
1.85,120.63,12.601,103.037,-0.227507
1.85,120.64,12.601,103.035,-0.218213
1.86,120.65,12.601,103.033,-0.223937
1.86,120.66,12.600,103.031,-0.226806
1.86,120.67,12.600,103.028,-0.216171
1.87,120.68,12.600,103.026,-0.225073
1.87,120.69,12.600,103.024,-0.233446
1.87,120.70,12.599,103.021,-0.206723
1.88,120.71,12.599,103.019,-0.201244
1.88,120.72,12.599,103.017,-0.189206
1.88,120.74,12.599,103.015,-0.182426
1.89,120.75,12.598,103.013,-0.178236
1.89,120.76,12.598,103.011,-0.183013
1.89,120.77,12.598,103.009,-0.190126
1.90,120.78,12.598,103.007,-0.192867
1.90,120.79,12.597,103.005,-0.185625
1.90,120.80,12.597,103.002,-0.174929
1.91,120.82,12.597,103.000,-0.179534
1.91,120.83,12.597,102.998,-0.173888
1.91,120.84,12.596,102.996,-0.164211
1.92,120.85,12.596,102.994,-0.160034
1.92,120.87,12.596,102.992,-0.153068
1.92,120.88,12.596,102.990,-0.149790
1.93,120.89,12.595,102.988,-0.159126
1.93,120.90,12.595,102.986,-0.158854
1.93,120.92,12.595,102.984,-0.157917
1.94,120.93,12.595,102.982,-0.147154
1.94,120.94,12.594,102.980,-0.153469
1.94,120.96,12.594,102.978,-0.158038
1.95,120.97,12.594,102.976,-0.157415
1.95,120.99,12.593,102.973,-0.161678
1.95,121.00,12.593,102.971,-0.156076
1.96,121.01,12.593,102.969,-0.142558
1.96,121.03,12.593,102.967,-0.135712
1.96,121.04,12.592,102.965,-0.136704
1.97,121.06,12.592,102.963,-0.147260
1.97,121.07,12.592,102.961,-0.145744
1.97,121.09,12.592,102.959,-0.143554
1.98,121.10,12.591,102.957,-0.140951
1.98,121.12,12.591,102.955,-0.132907
1.98,121.13,12.591,102.953,-0.132965
1.99,121.15,12.591,102.951,-0.141914
1.99,121.16,12.590,102.949,-0.138259
1.99,121.18,12.590,102.947,-0.139668
2.00,121.19,12.590,102.944,-0.139642
2.00,121.21,12.590,102.942,-0.129048
2.00,121.22,12.589,102.940,-0.126652
2.01,121.24,12.589,102.938,-0.130874
2.01,121.25,12.589,102.936,-0.131573
2.01,121.27,12.589,102.934,-0.125258
2.02,121.28,12.588,102.932,-0.123993
2.02,121.30,12.588,102.931,-0.123131
2.02,121.31,12.588,102.929,-0.130208
2.03,121.33,12.588,102.926,-0.132029
2.03,121.35,12.587,102.924,-0.128556
2.03,121.36,12.587,102.922,-0.131591
2.04,121.38,12.587,102.920,-0.140703
2.04,121.39,12.587,102.918,-0.136098
2.04,121.41,12.586,102.916,-0.127325
2.05,121.42,12.586,102.914,-0.128502
2.05,121.44,12.586,102.912,-0.124963
2.05,121.46,12.586,102.910,-0.126491
2.06,121.47,12.585,102.908,-0.132649
2.06,121.49,12.585,102.906,-0.125347
2.06,121.50,12.585,102.904,-0.124102
2.07,121.52,12.585,102.902,-0.124127
2.07,121.54,12.584,102.900,-0.125239
2.07,121.55,12.584,102.898,-0.126146
2.08,121.57,12.584,102.896,-0.126610
2.08,121.58,12.584,102.894,-0.121910
2.08,121.60,12.584,102.892,-0.123556
2.09,121.62,12.583,102.890,-0.117900
2.09,121.63,12.583,102.888,-0.116636
2.09,121.65,12.583,102.886,-0.119691
2.10,121.66,12.583,102.884,-0.126420
2.10,121.68,12.582,102.882,-0.130128
2.10,121.70,12.582,102.880,-0.130941
2.11,121.71,12.582,102.878,-0.127267
2.11,121.73,12.582,102.876,-0.116984
2.11,121.74,12.581,102.874,-0.116211
2.12,121.76,12.581,102.872,-0.118950
2.12,121.78,12.581,102.870,-0.124964
2.12,121.79,12.581,102.868,-0.116182
2.13,121.81,12.580,102.867,-0.116775
2.13,121.82,12.580,102.865,-0.136624
2.13,121.84,12.580,102.862,-0.133054
2.14,121.86,12.580,102.860,-0.117074
2.14,121.87,12.579,102.859,-0.114613
2.14,121.89,12.579,102.857,-0.118839
2.15,121.90,12.579,102.855,-0.116776
2.15,121.92,12.579,102.853,-0.109351
2.15,121.94,12.579,102.851,-0.114981
2.16,121.95,12.578,102.849,-0.116446
2.16,121.97,12.578,102.847,-0.117715
2.16,121.98,12.578,102.846,-0.119577
2.17,122.00,12.578,102.844,-0.121033
2.17,122.02,12.577,102.842,-0.112645
2.17,122.03,12.577,102.840,-0.118537
2.18,122.05,12.577,102.838,-0.146885
2.18,122.06,12.577,102.835,-0.142612
2.18,122.08,12.576,102.833,-0.110624
2.19,122.10,12.576,102.832,-0.107821
2.19,122.11,12.576,102.830,-0.110879
2.19,122.13,12.576,102.828,-0.109405
2.20,122.14,12.575,102.826,-0.119509
2.20,122.16,12.575,102.824,-0.118710
2.20,122.18,12.575,102.822,-0.110932
2.21,122.19,12.575,102.821,-0.108070
2.21,122.21,12.575,102.819,-0.123396
2.21,122.23,12.574,102.817,-0.123749
2.22,122.24,12.574,102.815,-0.108046
2.22,122.26,12.574,102.813,-0.0987301
2.22,122.27,12.574,102.812,-0.104304
2.23,122.29,12.573,102.810,-0.115367
2.23,122.31,12.573,102.808,-0.115550
2.23,122.32,12.573,102.806,-0.111871
2.24,122.34,12.573,102.804,-0.109092
2.24,122.36,12.573,102.803,-0.106538
2.24,122.37,12.572,102.801,-0.111817
2.25,122.39,12.572,102.799,-0.119493
2.25,122.40,12.572,102.797,-0.134278
2.25,122.42,12.572,102.795,-0.123379
2.26,122.44,12.571,102.793,-0.110397
2.26,122.45,12.571,102.791,-0.108052
2.26,122.47,12.571,102.789,-0.103964
2.27,122.49,12.571,102.788,-0.109339
2.27,122.50,12.571,102.786,-0.114365
2.27,122.52,12.570,102.784,-0.109453
2.28,122.54,12.570,102.782,-0.101406
2.28,122.55,12.570,102.780,-0.104772
2.28,122.57,12.570,102.779,-0.108884
2.29,122.59,12.569,102.777,-0.102538
2.29,122.60,12.569,102.775,-0.105186
2.29,122.62,12.569,102.773,-0.107556
2.30,122.63,12.569,102.772,-0.100746
2.30,122.65,12.569,102.770,-0.0995767
2.30,122.67,12.568,102.768,-0.135859
2.31,122.68,12.568,102.765,-0.165314
2.31,122.70,12.568,102.763,-0.111131
2.31,122.72,12.568,102.762,-0.0991098
2.32,122.73,12.567,102.760,-0.105544
2.32,122.75,12.567,102.758,-0.103009
2.32,122.77,12.567,102.756,-0.101650
2.33,122.78,12.567,102.755,-0.100870
2.33,122.80,12.567,102.753,-0.101301
2.33,122.82,12.566,102.751,-0.104584
2.34,122.83,12.566,102.750,-0.104022
2.34,122.85,12.566,102.748,-0.104854
2.34,122.87,12.566,102.746,-0.101196
2.35,122.88,12.565,102.745,-0.0967473
2.35,122.90,12.565,102.743,-0.106330
2.35,122.92,12.565,102.741,-0.107609
2.36,122.93,12.565,102.739,-0.101042
2.36,122.95,12.565,102.738,-0.0922373
2.36,122.97,12.564,102.736,-0.0991418
2.37,122.98,12.564,102.734,-0.0997439
2.37,123.00,12.564,102.733,-0.0892840
2.37,123.02,12.564,102.731,-0.101868
2.38,123.03,12.564,102.729,-0.109763
2.38,123.05,12.563,102.728,-0.0974087
2.38,123.07,12.563,102.726,-0.0913399
2.39,123.09,12.563,102.725,-0.0936849
2.39,123.10,12.563,102.723,-0.104165
2.39,123.12,12.563,102.721,-0.104284
2.40,123.14,12.562,102.719,-0.0886469
2.40,123.15,12.562,102.718,-0.0823681
2.40,123.17,12.562,102.717,-0.0901799
2.41,123.19,12.562,102.715,-0.0914803
2.41,123.20,12.562,102.714,-0.0971117
2.41,123.22,12.562,102.712,-0.103910
2.42,123.24,12.561,102.710,-0.0972004
2.42,123.25,12.561,102.709,-0.0919781
2.42,123.27,12.561,102.707,-0.100338
2.43,123.29,12.561,102.705,-0.115130
2.43,123.30,12.560,102.703,-0.116279
2.43,123.32,12.560,102.701,-0.102763
2.44,123.34,12.560,102.700,-0.104293
2.44,123.35,12.560,102.698,-0.0874114
2.44,123.37,12.560,102.697,-0.0793429
2.45,123.39,12.559,102.695,-0.0851126
2.45,123.40,12.559,102.694,-0.0924761
2.45,123.42,12.559,102.692,-0.0863656
2.46,123.44,12.559,102.691,-0.0894666
2.46,123.45,12.559,102.689,-0.0918375
2.46,123.47,12.559,102.688,-0.0879994
2.47,123.49,12.558,102.686,-0.0906864
2.47,123.50,12.558,102.685,-0.0903461
2.47,123.52,12.558,102.683,-0.0836293
2.48,123.54,12.558,102.682,-0.0803421
2.48,123.55,12.558,102.681,-0.0822079
2.48,123.57,12.558,102.679,-0.0919039
2.49,123.59,12.557,102.678,-0.0906608
2.49,123.60,12.557,102.676,-0.0879781
2.49,123.62,12.557,102.675,-0.0884729
2.50,123.64,12.557,102.673,-0.0972737
2.50,123.65,12.557,102.672,-0.0903705
2.50,123.67,12.556,102.670,-0.0926756
2.51,123.69,12.556,102.668,-0.110289
2.51,123.70,12.556,102.667,-0.0989241
2.51,123.72,12.556,102.665,-0.0886192
2.52,123.74,12.556,102.664,-0.0907099
2.52,123.75,12.555,102.662,-0.0958725
2.52,123.77,12.555,102.660,-0.0969686
2.53,123.79,12.555,102.659,-0.0924610
2.53,123.80,12.555,102.657,-0.0864684
2.53,123.82,12.555,102.656,-0.0859596
2.54,123.84,12.554,102.654,-0.0835768
2.54,123.85,12.554,102.653,-0.0947452
2.54,123.87,12.554,102.651,-0.0933272
2.55,123.89,12.554,102.650,-0.0859992
2.55,123.90,12.554,102.648,-0.0899873
2.55,123.92,12.554,102.647,-0.0912498
2.56,123.94,12.553,102.645,-0.0866075
2.56,123.96,12.553,102.644,-0.0810416
2.56,123.97,12.553,102.643,-0.0871481
2.57,123.99,12.553,102.641,-0.0923948
2.57,124.01,12.553,102.640,-0.0900711
2.57,124.02,12.552,102.638,-0.0902372
2.58,124.04,12.552,102.637,-0.0833942
2.58,124.06,12.552,102.635,-0.0866712
2.58,124.07,12.552,102.634,-0.0830525
2.59,124.09,12.552,102.632,-0.0774430
2.59,124.11,12.552,102.631,-0.0815972
2.59,124.12,12.551,102.630,-0.0806158
2.60,124.14,12.551,102.628,-0.0814230
2.60,124.16,12.551,102.627,-0.0849240
2.60,124.17,12.551,102.626,-0.0796640
2.61,124.19,12.551,102.624,-0.0795942
2.61,124.21,12.551,102.623,-0.0833411
2.61,124.22,12.550,102.622,-0.0877512
2.62,124.24,12.550,102.620,-0.0834779
2.62,124.26,12.550,102.619,-0.0790894
2.62,124.27,12.550,102.617,-0.0936197
2.63,124.29,12.550,102.616,-0.115409
2.63,124.31,12.549,102.614,-0.0974382
2.63,124.32,12.549,102.612,-0.0852614
[...]
3.32,127.78,12.520,102.371,-0.0530444
3.33,127.79,12.520,102.370,-0.0506609
3.33,127.81,12.520,102.369,-0.0579079
3.33,127.83,12.519,102.368,-0.0609922
3.34,127.84,12.519,102.367,-0.0629836
3.34,127.86,12.519,102.366,-0.0586897
3.34,127.88,12.519,102.365,-0.0594177
3.35,127.89,12.519,102.364,-0.0703683
3.35,127.91,12.519,102.363,-0.0620954
3.35,127.93,12.519,102.362,-0.0558695
3.36,127.94,12.519,102.361,-0.0690374
3.36,127.96,12.518,102.360,-0.0714030
3.36,127.98,12.518,102.359,-0.0670488
3.37,128.00,12.518,102.357,-0.0679275
3.37,128.01,12.518,102.356,-0.0570000
3.37,128.03,12.518,102.356,-0.0490000
3.38,128.05,12.518,102.355,-0.0470909
3.38,128.06,12.518,102.354,-0.0505634
3.38,128.08,12.518,102.353,-0.0516835
3.39,128.10,12.518,102.352,-0.0527125
3.39,128.11,12.517,102.351,-0.0517492
3.39,128.13,12.517,102.350,-0.0566495
3.40,128.15,12.517,102.349,-0.0595779
3.40,128.16,12.517,102.348,-0.0566884
3.40,128.18,12.517,102.347,-0.0550091
3.41,128.20,12.517,102.347,-0.0527322
3.41,128.21,12.517,102.346,-0.0513030
3.41,128.23,12.517,102.345,-0.0559404
3.42,128.25,12.516,102.344,-0.0566485
3.42,128.26,12.516,102.343,-0.0566100
3.42,128.28,12.516,102.342,-0.0547149
3.43,128.30,12.516,102.341,-0.0605070
3.43,128.31,12.516,102.340,-0.0530268
3.43,128.33,12.516,102.339,-0.0423204
3.44,128.35,12.516,102.339,-0.0503206
3.44,128.36,12.516,102.338,-0.0499761
3.44,128.38,12.516,102.337,-0.0423508
3.45,128.40,12.516,102.336,-0.0576012
3.45,128.41,12.515,102.335,-0.0694182
3.45,128.43,12.515,102.334,-0.0603647
3.46,128.45,12.515,102.333,-0.0532421
3.46,128.46,12.515,102.332,-0.0534151
3.46,128.48,12.515,102.331,-0.0539110
3.47,128.50,12.515,102.330,-0.0515539
3.47,128.51,12.515,102.329,-0.0516453
3.47,128.53,12.515,102.329,-0.0490859
3.48,128.55,12.515,102.328,-0.0553504
3.48,128.56,12.514,102.327,-0.0519850
3.48,128.58,12.514,102.326,-0.0508415
3.49,128.60,12.514,102.325,-0.0516835
3.49,128.61,12.514,102.324,-0.0433580
3.49,128.63,12.514,102.324,-0.0511433
3.50,128.65,12.514,102.323,-0.0549966
3.50,128.66,12.514,102.322,-0.0571824
3.50,128.68,12.514,102.321,-0.0593083
3.51,128.70,12.514,102.320,-0.0526557
3.51,128.71,12.513,102.319,-0.0484432
3.51,128.73,12.513,102.318,-0.0499084
3.52,128.75,12.513,102.317,-0.0477293
3.52,128.76,12.513,102.317,-0.0421715
3.52,128.78,12.513,102.316,-0.0491947
3.53,128.80,12.513,102.315,-0.0538951
3.53,128.81,12.513,102.314,-0.0517234
3.53,128.83,12.513,102.313,-0.0466457
3.54,128.85,12.513,102.312,-0.0456466
3.54,128.86,12.513,102.312,-0.0408800
3.54,128.88,12.512,102.311,-0.0450797
3.55,128.90,12.512,102.310,-0.0480291
3.55,128.91,12.512,102.309,-0.0478635
3.55,128.93,12.512,102.309,-0.0537563
3.56,128.95,12.512,102.308,-0.0568795
3.56,128.96,12.512,102.307,-0.0447957
3.56,128.98,12.512,102.306,-0.0444139
3.57,129.00,12.512,102.305,-0.0447802
3.57,129.01,12.512,102.305,-0.0474527
3.57,129.03,12.512,102.304,-0.0544256
3.58,129.05,12.511,102.303,-0.0531335
3.58,129.06,12.511,102.302,-0.0516770
3.58,129.08,12.511,102.301,-0.0549651
3.59,129.10,12.511,102.300,-0.0536725
3.59,129.11,12.511,102.299,-0.0572025
3.59,129.13,12.511,102.298,-0.0576706
3.60,129.15,12.511,102.297,-0.0536760
3.60,129.16,12.511,102.297,-0.0473760
3.60,129.18,12.511,102.296,-0.0492878
3.61,129.20,12.511,102.295,-0.0446069
3.61,129.21,12.510,102.294,-0.0394180
3.61,129.23,12.510,102.294,-0.0497450
3.62,129.25,12.510,102.293,-0.0584095
3.62,129.26,12.510,102.292,-0.0568337
3.62,129.28,12.510,102.291,-0.0510965
3.63,129.30,12.510,102.290,-0.0429514
3.63,129.31,12.510,102.289,-0.0391856
3.63,129.33,12.510,102.289,-0.0501104
3.64,129.35,12.510,102.288,-0.0522810
3.64,129.36,12.510,102.287,-0.0524829
3.64,129.38,12.509,102.286,-0.0529300
3.65,129.40,12.509,102.285,-0.0512782
3.65,129.41,12.509,102.284,-0.0485579
3.65,129.43,12.509,102.283,-0.0426095
3.66,129.45,12.509,102.283,-0.0409672
3.66,129.46,12.509,102.282,-0.0523723
3.66,129.48,12.509,102.281,-0.0478830
3.67,129.50,12.509,102.280,-0.0440449
3.67,129.52,12.509,102.280,-0.0407618
3.67,129.53,12.509,102.279,-0.0425561
3.68,129.55,12.508,102.278,-0.0487700
3.68,129.57,12.508,102.277,-0.0426770
3.68,129.58,12.508,102.277,-0.0402080
3.69,129.60,12.508,102.276,-0.0377536
3.69,129.62,12.508,102.275,-0.0363337
3.69,129.63,12.508,102.275,-0.0461858
3.70,129.65,12.508,102.274,-0.0445426
3.70,129.67,12.508,102.273,-0.0437137
3.70,129.68,12.508,102.272,-0.0536486
3.71,129.70,12.508,102.272,-0.0571586
3.71,129.72,12.508,102.271,-0.0473066
3.71,129.73,12.507,102.270,-0.0415525
3.72,129.75,12.507,102.269,-0.0413701
3.72,129.77,12.507,102.269,-0.0344483
3.72,129.78,12.507,102.268,-0.0382865
3.73,129.80,12.507,102.267,-0.0389893
3.73,129.82,12.507,102.267,-0.0338089
3.73,129.83,12.507,102.266,-0.0492267
3.74,129.85,12.507,102.265,-0.0529699
3.74,129.87,12.507,102.264,-0.0368227
3.74,129.88,12.507,102.264,-0.0364631
3.75,129.90,12.507,102.263,-0.0417044
3.75,129.92,12.507,102.263,-0.0396929
3.75,129.93,12.506,102.262,-0.0526897
3.76,129.95,12.506,102.261,-0.0569994
3.76,129.97,12.506,102.260,-0.0484078
3.76,129.98,12.506,102.259,-0.0387918
3.77,130.00,12.506,102.259,-0.0359685
3.77,130.02,12.506,102.258,-0.0445729
3.77,130.03,12.506,102.257,-0.0517389
3.78,130.05,12.506,102.256,-0.0461704
3.78,130.07,12.506,102.256,-0.0440557
3.78,130.08,12.506,102.255,-0.0513736
3.79,130.10,12.505,102.254,-0.0467949
3.79,130.12,12.505,102.253,-0.0452543
3.79,130.13,12.505,102.252,-0.0491291
3.80,130.15,12.505,102.252,-0.0489460
3.80,130.17,12.505,102.251,-0.0461301
3.80,130.18,12.505,102.250,-0.0417197
3.81,130.20,12.505,102.249,-0.0481205
3.81,130.22,12.505,102.248,-0.0512659
3.81,130.23,12.505,102.248,-0.0428440
3.82,130.25,12.505,102.247,-0.0356881
3.82,130.27,12.505,102.246,-0.0443356
3.82,130.28,12.504,102.246,-0.0535981
3.83,130.30,12.504,102.245,-0.0490826
3.83,130.32,12.504,102.244,-0.0422018
3.83,130.33,12.504,102.243,-0.0441960
3.84,130.35,12.504,102.242,-0.0445544
3.84,130.37,12.504,102.242,-0.0493299
3.84,130.38,12.504,102.241,-0.0593256
3.85,130.40,12.504,102.240,-0.0512672
3.85,130.42,12.504,102.239,-0.0447615
3.85,130.43,12.504,102.238,-0.0546681
3.86,130.45,12.503,102.237,-0.0470123
3.86,130.47,12.503,102.237,-0.0368336
3.86,130.48,12.503,102.236,-0.0426052
3.87,130.50,12.503,102.235,-0.0454544
3.87,130.52,12.503,102.235,-0.0439801
3.87,130.53,12.503,102.234,-0.0421636
3.88,130.55,12.503,102.233,-0.0438139
3.88,130.57,12.503,102.232,-0.0427656
3.88,130.58,12.503,102.232,-0.0382784
3.89,130.60,12.503,102.231,-0.0390110
3.89,130.62,12.503,102.230,-0.0416736
3.89,130.63,12.503,102.230,-0.0368973
3.90,130.65,12.502,102.229,-0.0366102
3.90,130.67,12.502,102.229,-0.0367082
3.90,130.68,12.502,102.228,-0.0412850
3.91,130.70,12.502,102.227,-0.0328450
3.91,130.72,12.502,102.227,-0.0326742
3.91,130.73,12.502,102.226,-0.0311176
3.92,130.75,12.502,102.226,-0.0295515
3.92,130.77,12.502,102.225,-0.0317535
3.92,130.78,12.502,102.225,-0.0343030
3.93,130.80,12.502,102.224,-0.0370538
3.93,130.82,12.502,102.223,-0.0460288
3.93,130.83,12.502,102.222,-0.0736758
3.94,130.85,12.501,102.221,-0.0710623
3.94,130.87,12.501,102.220,-0.0388969
3.94,130.88,12.501,102.220,-0.0272738
3.95,130.90,12.501,102.219,-0.0390962
3.95,130.92,12.501,102.218,-0.0514822
3.95,130.93,12.501,102.217,-0.0499553
3.96,130.95,12.501,102.217,-0.0458707
3.96,130.97,12.501,102.216,-0.0465032
3.96,130.98,12.501,102.215,-0.0359776
3.97,131.00,12.501,102.215,-0.0336081
3.97,131.02,12.501,102.214,-0.0356369
3.97,131.03,12.501,102.214,-0.0278645
3.98,131.05,12.501,102.213,-0.0358267
3.98,131.07,12.500,102.212,-0.0475275
3.98,131.08,12.500,102.212,-0.0404762
3.99,131.10,12.500,102.211,-0.0346154
3.99,131.12,12.500,102.210,-0.0377149
3.99,131.13,12.500,102.210,-0.0325832
4.00,131.15,12.500,102.209,-0.0311355
4.00,131.17,12.500,102.209,-0.0318681
4.00,131.18,12.500,102.208,-0.0337115
4.01,131.20,12.500,102.208,-0.0369386
4.01,131.22,12.500,102.207,-0.0391383
4.01,131.23,12.500,102.206,-0.0451874
4.02,131.25,12.500,102.205,-0.0507789
4.02,131.27,12.499,102.205,-0.0461386
4.02,131.28,12.499,102.204,-0.0351370
4.03,131.30,12.499,102.203,-0.0389841
4.03,131.32,12.499,102.203,-0.0463131
4.03,131.33,12.499,102.202,-0.0408036
4.04,131.35,12.499,102.201,-0.0346919
4.04,131.37,12.499,102.201,-0.0365344
4.04,131.38,12.499,102.200,-0.0452049
4.05,131.40,12.499,102.199,-0.0530361
4.05,131.42,12.499,102.198,-0.0476308
4.05,131.43,12.499,102.198,-0.0340562
4.06,131.45,12.499,102.197,-0.0305733
4.06,131.47,12.498,102.197,-0.0311467
4.06,131.48,12.498,102.196,-0.0356423
4.07,131.50,12.498,102.195,-0.0398530
4.07,131.51,12.498,102.195,-0.0392103
4.07,131.53,12.498,102.194,-0.0372108
4.08,131.55,12.498,102.194,-0.0372111
4.08,131.56,12.498,102.193,-0.0392104
4.08,131.58,12.498,102.192,-0.0443684
4.09,131.60,12.498,102.191,-0.0447438
4.09,131.61,12.498,102.191,-0.0410618
4.09,131.63,12.498,102.190,-0.0430147
4.10,131.65,12.498,102.189,-0.0438252
4.10,131.66,12.498,102.189,-0.0388354
4.10,131.68,12.497,102.188,-0.0354454
4.11,131.70,12.497,102.187,-0.0317606
4.11,131.71,12.497,102.187,-0.0339635
4.11,131.73,12.497,102.186,-0.0403824
4.12,131.75,12.497,102.186,-0.0393024
4.12,131.76,12.497,102.185,-0.0424250
4.12,131.78,12.497,102.184,-0.0427685
4.13,131.80,12.497,102.184,-0.0383839
4.13,131.81,12.497,102.183,-0.0377204
4.13,131.83,12.497,102.182,-0.0341159
4.14,131.85,12.497,102.182,-0.0377833
4.14,131.86,12.497,102.181,-0.0372477
4.14,131.88,12.497,102.181,-0.0334862
4.15,131.90,12.496,102.180,-0.0332110
4.15,131.91,12.496,102.179,-0.0357607
4.15,131.93,12.496,102.179,-0.0370369
4.16,131.95,12.496,102.178,-0.0309749
4.16,131.96,12.496,102.178,-0.0281549
4.16,131.98,12.496,102.177,-0.0319906
4.17,132.00,12.496,102.177,-0.0369250
4.17,132.01,12.496,102.176,-0.0367555
4.17,132.03,12.496,102.175,-0.0434230
4.18,132.05,12.496,102.175,-0.0460872
4.18,132.06,12.496,102.174,-0.0392069
4.18,132.08,12.496,102.173,-0.0326007
4.19,132.10,12.496,102.173,-0.0312396
4.19,132.11,12.496,102.172,-0.0300538
4.19,132.13,12.495,102.172,-0.0315813
4.20,132.15,12.495,102.171,-0.0312900
4.20,132.16,12.495,102.171,-0.0311983
4.20,132.18,12.495,102.170,-0.0285558
4.21,132.20,12.495,102.170,-0.0318510
4.21,132.21,12.495,102.169,-0.0301977
4.21,132.23,12.495,102.169,-0.0287285
4.22,132.25,12.495,102.168,-0.0324735
4.22,132.26,12.495,102.168,-0.0388703
4.22,132.28,12.495,102.167,-0.0444484
4.23,132.30,12.495,102.166,-0.0386790
4.23,132.31,12.495,102.166,-0.0417954
4.23,132.33,12.495,102.165,-0.0300817
4.24,132.35,12.495,102.165,-0.0244059
4.24,132.36,12.495,102.164,-0.0411335
4.24,132.38,12.494,102.163,-0.0473050
4.25,132.40,12.494,102.163,-0.0390878
4.25,132.41,12.494,102.162,-0.0327116
4.25,132.43,12.494,102.161,-0.0313354
4.26,132.45,12.494,102.161,-0.0322669
4.26,132.46,12.494,102.160,-0.0288688
4.26,132.48,12.494,102.160,-0.0292235
4.27,132.50,12.494,102.159,-0.0327732
4.27,132.51,12.494,102.159,-0.0249184
4.27,132.53,12.494,102.158,-0.0324194
4.28,132.55,12.494,102.158,-0.0367187
4.28,132.56,12.494,102.157,-0.0239358
4.28,132.58,12.494,102.157,-0.0232965
4.29,132.60,12.494,102.157,-0.0309584
4.29,132.61,12.494,102.156,-0.0324383
4.29,132.63,12.493,102.155,-0.0305951
4.30,132.65,12.493,102.155,-0.0312219
4.30,132.66,12.493,102.154,-0.0283107
4.30,132.68,12.493,102.154,-0.0306678
4.31,132.70,12.493,102.153,-0.0248175
4.31,132.71,12.493,102.153,-0.0340506
4.31,132.73,12.493,102.152,-0.0324142
4.32,132.75,12.493,102.152,-0.0268397
4.32,132.76,12.493,102.151,-0.0272049
4.32,132.78,12.493,102.151,-0.0279556
4.33,132.80,12.493,102.151,-0.0306050
4.33,132.81,12.493,102.150,-0.0326086
4.33,132.83,12.493,102.149,-0.0323289
4.34,132.85,12.493,102.149,-0.0353427
4.34,132.86,12.493,102.148,-0.0343320
4.34,132.88,12.493,102.148,-0.0354409
4.35,132.90,12.492,102.147,-0.0473977
4.35,132.92,12.492,102.146,-0.0500641
4.35,132.93,12.492,102.145,-0.0435179
4.36,132.95,12.492,102.145,-0.0398682
4.36,132.97,12.492,102.144,-0.0315458
4.36,132.98,12.492,102.144,-0.0273456
4.37,133.00,12.492,102.143,-0.0316561
4.37,133.02,12.492,102.143,-0.0332116
4.37,133.03,12.492,102.142,-0.0395176
4.38,133.05,12.492,102.141,-0.0371456
4.38,133.07,12.492,102.141,-0.0322051
4.38,133.08,12.492,102.140,-0.0277373
4.39,133.10,12.492,102.140,-0.0317766
4.39,133.12,12.491,102.139,-0.0337840
4.39,133.13,12.491,102.139,-0.0396583
4.40,133.15,12.491,102.138,-0.0319725
4.40,133.17,12.491,102.138,-0.0288626
4.40,133.18,12.491,102.137,-0.0391234
4.41,133.20,12.491,102.136,-0.0449049
4.41,133.22,12.491,102.135,-0.0403305
4.41,133.23,12.491,102.135,-0.0316225
4.42,133.25,12.491,102.134,-0.0334613
4.42,133.27,12.491,102.134,-0.0323679
4.42,133.28,12.491,102.133,-0.0336697
4.43,133.30,12.491,102.133,-0.0381651
4.43,133.32,12.491,102.132,-0.0382362
4.43,133.33,12.491,102.131,-0.0313657
4.44,133.35,12.490,102.131,-0.0368807
4.44,133.36,12.490,102.130,-0.0439450
4.44,133.38,12.490,102.130,-0.0391887
4.45,133.40,12.490,102.129,-0.0345135
4.45,133.41,12.490,102.128,-0.0291680
4.45,133.43,12.490,102.128,-0.0323905
4.46,133.45,12.490,102.127,-0.0311927
4.46,133.46,12.490,102.127,-0.0281492
4.46,133.48,12.490,102.126,-0.0255866
4.47,133.50,12.490,102.126,-0.0268709
4.47,133.51,12.490,102.126,-0.0286080
4.47,133.53,12.490,102.125,-0.0309174
4.48,133.55,12.490,102.125,-0.0315475
4.48,133.56,12.490,102.124,-0.0231985
4.48,133.58,12.490,102.124,-0.0272477
4.49,133.60,12.489,102.123,-0.0342202
4.49,133.61,12.489,102.123,-0.0316514
4.49,133.63,12.489,102.122,-0.0388782
4.50,133.65,12.489,102.121,-0.0433626
4.50,133.66,12.489,102.121,-0.0422546
4.50,133.68,12.489,102.120,-0.0342017
4.51,133.70,12.489,102.119,-0.0202633
4.51,133.71,12.489,102.119,-0.0176898
4.51,133.73,12.489,102.119,-0.0272225
4.52,133.75,12.489,102.118,-0.0303554
4.52,133.76,12.489,102.118,-0.0275877
4.52,133.78,12.489,102.117,-0.0292369
4.53,133.80,12.489,102.117,-0.0330091
4.53,133.81,12.489,102.116,-0.0271370
4.53,133.83,12.489,102.116,-0.0319889
4.54,133.85,12.489,102.115,-0.0220983
4.54,133.86,12.489,102.115,-0.0223735
4.54,133.88,12.488,102.115,-0.0375795
4.55,133.90,12.488,102.114,-0.0410702
4.55,133.91,12.488,102.113,-0.0327343
4.55,133.93,12.488,102.113,-0.0257650
4.56,133.95,12.488,102.112,-0.0284139
4.56,133.96,12.488,102.112,-0.0316102
4.56,133.98,12.488,102.111,-0.0267548
4.57,134.00,12.488,102.111,-0.0304255
4.57,134.01,12.488,102.110,-0.0294226
4.57,134.03,12.488,102.110,-0.0313475
4.58,134.05,12.488,102.109,-0.0263220
4.58,134.06,12.488,102.109,-0.0262385
4.58,134.08,12.488,102.108,-0.0269622
4.59,134.10,12.488,102.108,-0.0275992
4.59,134.11,12.488,102.108,-0.0270642
4.59,134.13,12.488,102.107,-0.0249678
4.60,134.15,12.487,102.107,-0.0278852
4.60,134.16,12.487,102.106,-0.0353258
4.60,134.18,12.487,102.106,-0.0328738
4.61,134.20,12.487,102.105,-0.0284766
4.61,134.21,12.487,102.105,-0.0316920
4.61,134.23,12.487,102.104,-0.0387714
4.62,134.25,12.487,102.103,-0.0444853
4.62,134.26,12.487,102.103,-0.0390625
4.62,134.28,12.487,102.102,-0.0332533
4.63,134.30,12.487,102.102,-0.0296765
4.63,134.31,12.487,102.101,-0.0265885
4.63,134.33,12.487,102.101,-0.0236520
4.64,134.35,12.487,102.100,-0.0240113
4.64,134.36,12.487,102.100,-0.0264946
4.64,134.38,12.487,102.099,-0.0293636
4.65,134.40,12.487,102.099,-0.0225599
4.65,134.41,12.486,102.099,-0.0217435
4.65,134.43,12.486,102.098,-0.0221278
4.66,134.45,12.486,102.098,-0.0191882
4.66,134.46,12.486,102.098,-0.0254613
4.66,134.48,12.486,102.097,-0.0422662
4.67,134.50,12.486,102.096,-0.0372529
4.67,134.51,12.486,102.096,-0.0257971
4.67,134.53,12.486,102.095,-0.0212053
4.68,134.54,12.486,102.095,-0.0276753
4.68,134.56,12.486,102.094,-0.0333766
4.68,134.58,12.486,102.094,-0.0402764
4.69,134.59,12.486,102.093,-0.0361294
4.69,134.61,12.486,102.093,-0.0271017
4.69,134.63,12.486,102.092,-0.0271745
4.70,134.64,12.486,102.092,-0.0304956
4.70,134.66,12.486,102.091,-0.0270817
4.70,134.68,12.486,102.091,-0.0322167
4.71,134.69,12.485,102.090,-0.0323026
4.71,134.71,12.485,102.090,-0.0321422
4.71,134.73,12.485,102.089,-0.0348924
4.72,134.74,12.485,102.089,-0.0308348
4.72,134.76,12.485,102.088,-0.0266739
4.72,134.78,12.485,102.088,-0.0319226
4.73,134.79,12.485,102.087,-0.0312847
4.73,134.81,12.485,102.087,-0.0331932
4.73,134.83,12.485,102.086,-0.0338967
4.74,134.84,12.485,102.086,-0.0251754
4.74,134.86,12.485,102.085,-0.0262771
4.74,134.88,12.485,102.085,-0.0305621
4.75,134.89,12.485,102.084,-0.0332241
4.75,134.91,12.485,102.084,-0.0270793
4.75,134.93,12.485,102.083,-0.0246789
4.76,134.94,12.485,102.083,-0.0226526
4.76,134.96,12.485,102.082,-0.0260409
4.76,134.98,12.484,102.082,-0.0221890
4.77,134.99,12.484,102.082,-0.0256776
4.77,135.01,12.484,102.081,-0.0413544
4.77,135.03,12.484,102.080,-0.0470949
4.78,135.04,12.484,102.080,-0.0328945
4.78,135.06,12.484,102.079,-0.0250920
4.78,135.08,12.484,102.079,-0.0220581
4.79,135.09,12.484,102.078,-0.0192243
4.79,135.11,12.484,102.078,-0.0184886
4.79,135.13,12.484,102.078,-0.0191334
4.80,135.14,12.484,102.077,-0.0290031
4.80,135.16,12.484,102.077,-0.0341080
4.80,135.18,12.484,102.076,-0.0396709
4.81,135.19,12.484,102.076,-0.0366545
4.81,135.21,12.484,102.075,-0.0328154
4.81,135.23,12.484,102.074,-0.0325231
4.82,135.24,12.483,102.074,-0.0285089
4.82,135.26,12.483,102.073,-0.0251371
4.82,135.28,12.483,102.073,-0.0196527
4.83,135.29,12.483,102.073,-0.0200108
4.83,135.31,12.483,102.073,-0.0162619
4.83,135.33,12.483,102.072,-0.0195512
4.84,135.34,12.483,102.072,-0.0262098
4.84,135.36,12.483,102.071,-0.0315068
4.84,135.38,12.483,102.071,-0.0294123
4.85,135.39,12.483,102.070,-0.0312331
4.85,135.41,12.483,102.070,-0.0250038
4.85,135.43,12.483,102.070,-0.0227233
4.86,135.44,12.483,102.069,-0.0331383
4.86,135.46,12.483,102.068,-0.0332237
4.86,135.48,12.483,102.068,-0.0409672
4.87,135.49,12.483,102.067,-0.0440197
4.87,135.51,12.483,102.066,-0.0222929
4.87,135.53,12.483,102.066,-0.0100514
4.88,135.54,12.483,102.066,-0.0180962
4.88,135.56,12.482,102.066,-0.0259460
4.88,135.58,12.482,102.065,-0.0327736
4.89,135.59,12.482,102.065,-0.0339730
4.89,135.61,12.482,102.064,-0.0281536
4.89,135.63,12.482,102.064,-0.0248629
4.90,135.64,12.482,102.063,-0.0298903
4.90,135.66,12.482,102.063,-0.0307130
4.90,135.68,12.482,102.062,-0.0204830
4.91,135.69,12.482,102.062,-0.0233221
4.91,135.71,12.482,102.062,-0.0314442
4.91,135.73,12.482,102.061,-0.0289873
4.92,135.74,12.482,102.061,-0.0310047
4.92,135.76,12.482,102.060,-0.0289015
4.92,135.78,12.482,102.060,-0.0236132
4.93,135.79,12.482,102.059,-0.0208709
4.93,135.81,12.482,102.059,-0.0236127
4.93,135.83,12.482,102.058,-0.0311240
4.94,135.84,12.482,102.058,-0.0310437
4.94,135.86,12.481,102.057,-0.0303968
4.94,135.88,12.481,102.057,-0.0366156
4.95,135.89,12.481,102.056,-0.0300541
4.95,135.91,12.481,102.056,-0.0180466
4.95,135.93,12.481,102.055,-0.0256632
4.96,135.94,12.481,102.055,-0.0181541
4.96,135.96,12.481,102.055,-0.0117355
4.96,135.98,12.481,102.055,-0.0248398
4.97,135.99,12.481,102.054,-0.0208062
4.97,136.01,12.481,102.054,-0.0202637
4.97,136.03,12.481,102.053,-0.0297904
4.98,136.04,12.481,102.053,-0.0292287
4.98,136.06,12.481,102.052,-0.0190604
4.98,136.08,12.481,102.052,-0.0220896
4.99,136.09,12.481,102.052,-0.0197068
4.99,136.11,12.481,102.051,-0.0229147
4.99,136.13,12.481,102.051,-0.0174157
5.00,136.14,12.481,102.051,-0.0149447
5.00,136.16,12.481,102.051,-0.0218387
5.00,136.18,12.481,102.050,-0.0349541
5.01,136.19,12.480,102.049,-0.0440367
5.01,136.21,12.480,102.049,-0.0381864
5.01,136.23,12.480,102.048,-0.0331126
5.02,136.24,12.480,102.048,-0.0297904
5.02,136.26,12.480,102.047,
5.02,136.28,12.480,102.047,
5.03,136.29,12.480,102.047,
5.03,136.31,12.480,102.046,
5.03,136.33,12.480,102.046,
5.04,136.34,12.480,102.045,
5.04,136.36,12.480,102.045,
5.04,136.38,12.480,102.044,
5.05,136.39,12.480,102.044,
5.05,136.41,12.480,102.043,
5.05,136.43,12.480,102.043,
5.06,136.44,12.480,102.043,
5.06,136.46,12.480,102.042,
5.06,136.48,12.480,102.042,
5.07,136.49,12.480,102.042,
5.07,136.51,12.479,102.041,
5.07,136.53,12.479,102.041,
5.08,136.54,12.479,102.041,
5.08,136.56,12.479,102.040,
5.08,136.58,12.479,102.040,
5.09,136.59,12.479,102.040,
5.09,136.61,12.479,102.039,
5.09,136.62,12.479,102.039,