File: instrument_data/TGA/Co(phen)2(SCN)2 1172022.csv
Filename,Co(phen)2(SCN)2 1172022
Instrument name,5500-0566 (192.168.10.4)
Operator,Adam K
rundate,11/7/2022
Sample name,Co(phen)2(SCN)2
proceduresegments,Ramp 20.00 °C/min to 1200.00 °C
[File Parameters]
Run date,11/7/2022 11:31:23 AM
Trios version,5.3.0.48151
Original File Name,C:\ProgramData\TA Instruments\TRIOS\Data\CH302_B3_22_AK\Co(phen)2(SCN)2 1172022.tri
Current File Name,C:/ProgramData/TA Instruments/TRIOS/Data/CH302_B3_22_AK/Co(phen)2(SCN)2 1172022.tri
User at run start,CH-CBWNNF3-0721\ChemLocal
[Procedure]
Procedure Name,Ramp
Sample Name,Co(phen)2(SCN)2
Pan Number,1
Sample Mass,9.873 mg
Pan Type,Alumina (100 uL)
Comments,RT-1200C - Looking for decomposition.
Project Name,Dr. Bowman - Spin Crossover Research
Operator,Adam K
Test,Ramp
Skip Weight Stabilization,False
Sample mass pre-weigh,Not Available
Stop on Gas Flow Error,No
[Signal List]
Signal #1,Time (min)
Signal #2,Temperature (°C)
Signal #3,Weight (mg)
Signal #4,Temperature Difference (°C)
Signal #5,Sample Purge (mL/min)
Signal #6,Balance Purge (mL/min)
Signal #7,Set Point Temperature (°C)
Signal #8,Power Delivered (W)
Signal #9,Ramp Rate (°C/min)
[Configuration]
Company Name,localcc
Instrument Name,5500-0566
Instrument Type,TGA5500
Serial Number,5500-0566
IP,192.168.10.4
Location of Instrument,Olin Hall Rm 364
DisplayType,TianmaV2
Sample Interval ,0.1 s/pt
Gas 1,Nitrogen
Gas 2,Air
Selected Gas Channel,1
MTGA HiRes Licensed,Yes
[Versions]
Common IDD Version,1
Cortex Version,VER 2.1.2.60
Driver,5.0.0.6
GDM Version,1.2.1.2
TouchscreenVersion,1.0.3.1795
PCU Version,1.2.0.15
Transducer Version,1.1.0.32
[Experiment Logs]
Experiment Log Entry # 1,Ramp Segment 20 C/min to 1200 C Started
Experiment Log Entry # 3,Ending Experiment because user stopped
Experiment Log Entry # 5,Ending Experiment
[Method Log]
Method Log Entry # 1,(Ramp 1814) Ramp 20 °C/minute to 1200 °C
[Weight Calibration]
Date Applied,7/20/2022 10:21:44 AM
Empty Pan Number,23
Empty Pan Weight,341.358 mg
Low Reference Weight Pan Number,24
Low Reference Weight,442.546 mg
High Reference Weight Pan Number,25
High Reference Weight,"1,243.774 mg"
Low Gain Meter Reading,9.9772E-006 mg/count
High Gain Meter Reading,7.9459E-005 mg/count
Low Meter Offset,31.8759 mg
High Meter Offset,613.7978 mg
[Curie Calibration]
Date Applied,8/11/2021 12:40:46 PM
Description,From 256.990 °C to 456.990 °C at 20.000°C/min
Gas Type,Nitrogen
Pan Type,Platinum (100 uL)
Source Files 1,C:\ProgramData\TA Instruments\TRIOS\Data\Nickel Calibration.tri
Source Files 2,C:\ProgramData\TA Instruments\TRIOS\Data\Alumel Calibration.tri
Measured 1,158.9083
Known 1,154.16
Measured 2,358.1255
Known 2,356.99
[step]
Ramp 20.00 °C/min to 1200.00 °C
Time,Temperature,Weight,Weight,Deriv. Weight
min,°C,mg,%,% / °C
0.00,20.27,9.873,100.000,-4.64865
0.02,20.27,9.873,100.000,5.76599
0.04,20.27,9.873,99.999,-10.0553
0.06,20.27,9.873,99.999,0.793194
0.08,20.27,9.873,99.999,-8.31229
0.10,20.27,9.873,99.999,-2.68756
0.12,20.27,9.873,99.998,-0.335411
0.14,20.28,9.873,99.998,-0.717251
0.16,20.28,9.873,99.996,-0.204050
0.18,20.29,9.873,99.995,-0.214389
0.20,20.31,9.872,99.992,-0.0699771
0.22,20.33,9.872,99.992,-0.0628051
0.24,20.37,9.872,99.990,-0.0199906
0.26,20.42,9.872,99.988,-0.0384595
0.28,20.49,9.872,99.986,-0.0106260
0.30,20.58,9.872,99.985,-0.0230776
0.32,20.68,9.871,99.982,-0.0104146
0.34,20.81,9.871,99.981,-8.78754e-3
0.36,20.97,9.871,99.979,-8.06692e-3
0.38,21.15,9.871,99.978,-0.0115177
0.40,21.36,9.871,99.976,-4.63316e-3
0.42,21.60,9.871,99.974,-0.0149776
0.44,21.87,9.870,99.970,-0.0106429
0.46,22.16,9.870,99.967,-8.88865e-3
0.48,22.46,9.870,99.964,-0.0111678
0.50,22.78,9.869,99.960,-9.44394e-3
0.52,23.10,9.869,99.957,-8.88788e-3
0.54,23.42,9.869,99.954,-9.31153e-3
0.56,23.75,9.868,99.950,-7.30059e-3
0.58,24.09,9.868,99.948,-6.29862e-3
0.60,24.43,9.868,99.945,-7.09330e-3
0.62,24.77,9.868,99.943,-5.17081e-3
0.64,25.12,9.867,99.941,-7.21570e-3
0.66,25.48,9.867,99.939,-6.30264e-3
0.68,25.84,9.867,99.936,-6.59018e-3
0.70,26.21,9.867,99.935,-3.57199e-3
0.72,26.58,9.867,99.933,-4.70148e-3
0.74,26.96,9.866,99.931,-2.41323e-3
0.76,27.35,9.866,99.930,-5.50113e-3
0.78,27.74,9.866,99.928,-4.04842e-3
0.80,28.13,9.866,99.926,-3.20855e-3
0.82,28.52,9.866,99.925,-9.96304e-4
0.84,28.92,9.866,99.924,-4.18448e-3
0.86,29.32,9.866,99.922,-4.50771e-3
0.88,29.71,9.865,99.920,-3.60731e-3
0.90,30.11,9.865,99.918,-4.97331e-3
0.92,30.50,9.865,99.918,-2.89161e-3
0.94,30.90,9.865,99.917,-3.81462e-3
0.96,31.30,9.865,99.915,-3.57867e-3
0.98,31.69,9.865,99.914,-3.33879e-3
1.00,32.09,9.865,99.913,-2.45630e-3
1.02,32.49,9.865,99.912,-2.12781e-3
1.04,32.89,9.864,99.911,-1.89287e-3
1.06,33.29,9.864,99.910,-3.75257e-3
1.08,33.70,9.864,99.909,-2.56323e-3
1.10,34.10,9.864,99.908,-1.69789e-3
1.12,34.51,9.864,99.907,-3.59646e-3
1.14,34.91,9.864,99.905,-3.12063e-3
1.16,35.31,9.864,99.905,-8.14307e-4
1.18,35.72,9.864,99.904,-2.39889e-3
1.20,36.12,9.864,99.903,-3.19363e-3
1.22,36.53,9.864,99.902,-4.07988e-3
1.24,36.93,9.863,99.901,-3.96995e-3
1.26,37.34,9.863,99.899,-4.85569e-3
1.28,37.74,9.863,99.898,-2.45135e-3
1.30,38.14,9.863,99.897,-1.61083e-3
1.32,38.55,9.863,99.896,-2.38138e-3
1.34,38.95,9.863,99.895,-6.34447e-4
1.36,39.35,9.863,99.894,-2.78503e-3
1.38,39.76,9.863,99.893,-3.43981e-3
1.40,40.16,9.862,99.891,-2.26115e-3
1.42,40.57,9.862,99.891,-2.93792e-4
1.44,40.97,9.862,99.889,-4.04408e-3
1.46,41.38,9.862,99.888,-2.82438e-3
1.48,41.78,9.862,99.887,-2.55434e-3
1.50,42.19,9.862,99.885,-4.50027e-3
1.52,42.59,9.862,99.884,-4.41265e-3
1.54,43.00,9.862,99.882,-4.43797e-3
1.56,43.40,9.861,99.880,-4.07664e-3
1.58,43.81,9.861,99.879,-5.16565e-3
1.60,44.21,9.861,99.877,-4.55536e-3
1.62,44.61,9.861,99.875,-3.89797e-3
1.64,45.02,9.861,99.874,-4.64746e-3
1.66,45.42,9.861,99.872,-1.99486e-3
1.68,45.83,9.860,99.871,-5.34675e-3
1.70,46.23,9.860,99.869,-4.41770e-3
1.72,46.63,9.860,99.867,-4.39457e-3
1.74,47.04,9.860,99.864,-7.04505e-3
1.76,47.44,9.860,99.862,-4.91501e-3
1.78,47.85,9.859,99.860,-6.70458e-3
1.80,48.25,9.859,99.858,-5.84525e-3
1.82,48.65,9.859,99.856,-7.18398e-3
1.84,49.06,9.859,99.854,-5.23661e-3
1.86,49.46,9.859,99.851,-7.28014e-3
1.88,49.87,9.858,99.849,-7.05469e-3
1.90,50.27,9.858,99.847,-3.63087e-3
1.92,50.67,9.858,99.845,-7.55939e-3
1.94,51.08,9.858,99.843,-4.49504e-3
1.96,51.48,9.858,99.841,-3.40548e-3
1.98,51.88,9.857,99.839,-6.15191e-3
2.00,52.29,9.857,99.836,-7.71975e-3
2.02,52.69,9.857,99.834,-7.40053e-3
2.04,53.09,9.857,99.831,-6.40153e-3
2.06,53.50,9.856,99.829,-7.10484e-3
2.08,53.90,9.856,99.826,-5.63162e-3
2.10,54.30,9.856,99.824,-7.26806e-3
2.12,54.71,9.856,99.821,-5.95170e-3
2.14,55.11,9.855,99.818,-6.72622e-3
2.16,55.51,9.855,99.814,-8.90801e-3
2.18,55.91,9.855,99.812,-7.02371e-3
2.20,56.32,9.854,99.809,-8.52525e-3
2.22,56.72,9.854,99.806,-7.41380e-3
2.24,57.12,9.854,99.802,-7.66362e-3
2.26,57.52,9.853,99.799,-9.32456e-3
2.28,57.93,9.853,99.796,-0.0102103
2.30,58.33,9.853,99.793,-6.22882e-3
2.32,58.73,9.852,99.789,-0.0121876
2.34,59.14,9.852,99.786,-0.0105738
2.36,59.54,9.852,99.781,-0.0156687
2.38,59.94,9.851,99.774,-0.0126002
2.40,60.34,9.850,99.768,-0.0126282
2.42,60.75,9.850,99.762,-0.0157437
2.44,61.15,9.849,99.755,-0.0151405
2.46,61.55,9.848,99.750,-0.0117062
2.48,61.95,9.848,99.744,-0.0141496
2.50,62.35,9.847,99.738,-0.0136509
2.52,62.76,9.847,99.733,-0.0131259
2.54,63.16,9.846,99.728,-0.0115541
2.56,63.56,9.846,99.722,-0.0132827
2.58,63.96,9.845,99.717,-0.0133494
2.60,64.36,9.845,99.712,-0.0147354
2.62,64.76,9.844,99.707,-0.0123015
2.64,65.17,9.844,99.701,-0.0152447
2.66,65.57,9.843,99.697,-0.0116261
2.68,65.97,9.843,99.691,-0.0114688
2.70,66.37,9.842,99.687,-6.66058e-3
2.72,66.77,9.842,99.683,-5.06501e-3
2.74,67.17,9.842,99.681,-2.94395e-3
2.76,67.57,9.841,99.679,-6.52789e-3
2.78,67.98,9.841,99.676,-4.49496e-3
2.80,68.38,9.841,99.673,-7.39220e-3
2.82,68.78,9.841,99.671,-4.88035e-3
2.84,69.18,9.840,99.668,-9.61676e-3
2.86,69.58,9.840,99.664,-0.0101150
2.88,69.98,9.840,99.661,-8.49470e-3
2.90,70.39,9.839,99.658,-7.64577e-3
2.92,70.79,9.839,99.655,-8.14435e-3
2.94,71.19,9.839,99.651,-9.48668e-3
2.96,71.59,9.838,99.647,-0.0106957
2.98,72.00,9.838,99.643,-7.60388e-3
3.00,72.40,9.837,99.638,-0.0118451
3.02,72.80,9.837,99.633,-0.0100269
3.04,73.20,9.837,99.628,-0.0105131
3.06,73.60,9.836,99.623,-0.0133452
3.08,74.00,9.836,99.619,-0.0118951
3.10,74.40,9.835,99.613,-0.0123101
3.12,74.81,9.835,99.608,-0.0126560
3.14,75.21,9.834,99.603,-0.0136871
3.16,75.61,9.834,99.598,-0.0148790
3.18,76.01,9.833,99.592,-0.0153611
3.20,76.41,9.832,99.585,-0.0157733
3.22,76.81,9.832,99.579,-0.0139679
3.24,77.21,9.831,99.573,-9.41893e-3
3.26,77.61,9.831,99.568,-0.0160217
3.28,78.01,9.830,99.563,-8.93430e-3
3.30,78.41,9.830,99.558,-0.0175711
3.32,78.81,9.829,99.552,-0.0139848
3.34,79.21,9.828,99.544,-0.0339797
3.36,79.61,9.827,99.534,-0.0191969
3.38,80.01,9.826,99.525,-0.0191978
3.40,80.41,9.826,99.517,-0.0217103
3.42,80.81,9.825,99.509,-0.0216164
3.44,81.21,9.824,99.500,-0.0180012
3.46,81.62,9.823,99.494,-0.0134783
3.48,82.02,9.823,99.489,-0.0102574
3.50,82.42,9.822,99.483,-0.0173840
3.52,82.82,9.822,99.477,-0.0118588
3.54,83.22,9.821,99.471,-0.0144474
3.56,83.62,9.820,99.465,-0.0143821
3.58,84.02,9.820,99.458,-0.0185016
3.60,84.42,9.819,99.451,-0.0160150
3.62,84.82,9.818,99.444,-0.0196774
3.64,85.22,9.818,99.437,-0.0175294
3.66,85.62,9.817,99.430,-0.0164066
3.68,86.02,9.816,99.423,-0.0163619
3.70,86.42,9.816,99.416,-0.0215780
3.72,86.82,9.815,99.409,-0.0140913
3.74,87.22,9.814,99.402,-0.0178379
3.76,87.62,9.813,99.395,-0.0185922
3.78,88.02,9.813,99.387,-0.0197975
3.80,88.42,9.812,99.379,-0.0188645
3.82,88.82,9.811,99.372,-0.0181723
3.84,89.22,9.810,99.363,-0.0174151
3.86,89.62,9.810,99.356,-0.0182832
3.88,90.02,9.809,99.348,-0.0205419
3.90,90.42,9.808,99.340,-0.0214171
3.92,90.83,9.807,99.333,-0.0214882
3.94,91.23,9.807,99.325,-0.0194374
3.96,91.63,9.806,99.316,-0.0233277
3.98,92.03,9.805,99.307,-0.0195845
4.00,92.43,9.804,99.299,-0.0220814
4.02,92.83,9.803,99.290,-0.0228188
4.04,93.23,9.802,99.282,-0.0210093
4.06,93.63,9.801,99.273,-0.0207160
4.08,94.03,9.801,99.264,-0.0246326
4.10,94.43,9.800,99.255,-0.0207632
4.12,94.83,9.799,99.247,-0.0237109
4.14,95.23,9.798,99.239,-0.0184868
4.16,95.63,9.797,99.230,-0.0230101
4.18,96.03,9.796,99.221,-0.0217357
4.20,96.43,9.795,99.212,-0.0243216
4.22,96.83,9.795,99.203,-0.0209563
4.24,97.23,9.794,99.194,-0.0228422
4.26,97.63,9.793,99.185,-0.0241758
4.28,98.03,9.792,99.176,-0.0227830
4.30,98.43,9.791,99.167,-0.0203381
4.32,98.83,9.790,99.157,-0.0246399
4.34,99.23,9.789,99.147,-0.0220930
4.36,99.63,9.788,99.138,-0.0239872
4.38,100.03,9.787,99.128,-0.0228843
4.40,100.43,9.786,99.119,-0.0259526
4.42,100.83,9.785,99.109,-0.0218626
4.44,101.23,9.784,99.099,-0.0232350
4.46,101.63,9.783,99.090,-0.0249314
4.48,102.03,9.782,99.080,-0.0268618
4.50,102.43,9.781,99.070,-0.0232649
4.52,102.83,9.780,99.059,-0.0568623
4.54,103.23,9.779,99.045,-0.0235194
4.56,103.63,9.778,99.038,-0.0213399
4.58,104.03,9.777,99.029,-0.0224406
4.60,104.42,9.776,99.019,-0.0218193
4.62,104.82,9.775,99.010,-0.0226752
4.64,105.22,9.775,99.002,-0.0229106
4.66,105.62,9.774,98.992,-0.0225836
4.68,106.02,9.773,98.982,-0.0254313
4.70,106.42,9.772,98.973,-0.0220634
4.72,106.82,9.771,98.963,-0.0251025
4.74,107.22,9.770,98.953,-0.0239103
4.76,107.62,9.769,98.944,-0.0267509
4.78,108.02,9.768,98.933,-0.0268866
4.80,108.42,9.767,98.924,-0.0264027
4.82,108.82,9.766,98.915,-0.0213404
4.84,109.22,9.765,98.906,-0.0245008
4.86,109.62,9.764,98.896,-0.0253991
4.88,110.02,9.763,98.887,-0.0230422
4.90,110.42,9.762,98.877,-0.0234518
4.92,110.82,9.761,98.868,-0.0229511
4.94,111.22,9.760,98.858,-0.0230902
4.96,111.62,9.759,98.848,-0.0235265
4.98,112.02,9.759,98.839,-0.0239835
5.00,112.42,9.758,98.829,-0.0233176
5.02,112.82,9.757,98.820,-0.0219000
5.04,113.22,9.756,98.811,-0.0231812
5.06,113.62,9.755,98.802,-0.0218053
5.08,114.02,9.754,98.793,-0.0242153
5.10,114.42,9.753,98.784,-0.0227507
5.12,114.82,9.752,98.775,-0.0244970
5.14,115.22,9.751,98.765,-0.0220007
5.16,115.62,9.750,98.757,-0.0219808
5.18,116.02,9.749,98.747,-0.0183194
5.20,116.41,9.749,98.739,-0.0228117
5.22,116.81,9.748,98.730,-0.0192321
5.24,117.21,9.747,98.721,-0.0250975
5.26,117.61,9.746,98.713,-0.0189444
5.28,118.01,9.745,98.705,-0.0207432
5.30,118.41,9.745,98.697,-0.0185834
5.32,118.81,9.744,98.689,-0.0211851
5.34,119.21,9.743,98.680,-0.0160781
5.36,119.61,9.742,98.673,-0.0222309
5.38,120.01,9.741,98.665,-0.0176169
5.40,120.41,9.741,98.658,-0.0201722
5.42,120.81,9.740,98.648,-0.0343930
5.44,121.21,9.739,98.641,-0.0172240
5.46,121.61,9.738,98.634,-0.0187034
5.48,122.01,9.738,98.627,-0.0191491
5.50,122.41,9.737,98.620,-0.0167846
5.52,122.81,9.736,98.613,-0.0171429
5.54,123.21,9.736,98.605,-0.0163028
5.56,123.61,9.735,98.599,-0.0142716
5.58,124.01,9.734,98.593,-0.0188628
5.60,124.41,9.734,98.586,-0.0136805
5.62,124.81,9.733,98.580,-0.0176301
5.64,125.21,9.732,98.574,-0.0130778
5.66,125.61,9.732,98.568,-0.0150247
5.68,126.01,9.731,98.562,-0.0140059
5.70,126.41,9.731,98.556,-0.0144947
5.72,126.81,9.730,98.550,-0.0133853
5.74,127.21,9.729,98.544,-0.0126794
5.76,127.61,9.729,98.539,-0.0144702
5.78,128.01,9.728,98.534,-9.99747e-3
5.80,128.41,9.728,98.529,-0.0108920
5.82,128.80,9.728,98.524,-0.0116663
5.84,129.20,9.727,98.520,-0.0126518
5.86,129.60,9.727,98.515,-0.0121405
5.88,130.00,9.726,98.511,-0.0100573
5.90,130.40,9.726,98.507,-8.19973e-3
5.92,130.80,9.725,98.503,-0.0126191
5.94,131.20,9.725,98.498,-0.0116354
5.96,131.60,9.724,98.494,-7.69520e-3
5.98,132.00,9.724,98.490,-9.94045e-3
6.00,132.40,9.724,98.486,-6.73234e-3
6.02,132.80,9.723,98.482,-6.82547e-3
6.04,133.20,9.723,98.478,-8.22376e-3
6.06,133.60,9.723,98.474,-7.97320e-3
6.08,134.00,9.722,98.471,-0.0118677
6.10,134.40,9.722,98.467,-4.81271e-3
6.12,134.80,9.722,98.465,-5.56885e-3
6.14,135.20,9.721,98.462,-8.27150e-3
6.16,135.60,9.721,98.459,-3.68928e-3
6.18,136.00,9.721,98.457,-8.25109e-3
6.20,136.40,9.721,98.454,-7.31316e-3
6.22,136.80,9.720,98.451,-7.38193e-3
6.24,137.20,9.720,98.449,-6.09734e-3
6.26,137.60,9.720,98.446,-5.08874e-3
6.28,137.99,9.720,98.444,-5.13407e-3
6.30,138.39,9.719,98.441,-6.80601e-3
6.32,138.79,9.719,98.439,-7.17134e-3
6.34,139.19,9.719,98.435,-2.22222e-3
6.36,139.59,9.719,98.433,-4.60358e-3
6.38,139.99,9.718,98.432,-3.93809e-3
6.40,140.39,9.718,98.429,-6.82299e-3
6.42,140.79,9.718,98.427,-5.97609e-3
6.44,141.19,9.718,98.424,-5.65661e-3
6.46,141.59,9.717,98.422,-6.34564e-3
6.48,141.99,9.717,98.420,-4.17145e-3
6.50,142.39,9.717,98.418,-6.14397e-3
6.52,142.79,9.717,98.416,-3.48544e-3
6.54,143.19,9.717,98.413,-7.38432e-3
6.56,143.59,9.716,98.411,-5.98624e-3
6.58,143.99,9.716,98.409,-1.88014e-3
6.60,144.39,9.716,98.407,-5.13526e-3
6.62,144.79,9.716,98.405,-2.93338e-3
6.64,145.19,9.716,98.403,-6.80568e-3
6.66,145.59,9.715,98.400,-6.43764e-3
6.68,145.99,9.715,98.398,-6.36738e-3
6.70,146.39,9.715,98.396,-1.80926e-3
6.72,146.79,9.715,98.394,-3.50320e-3
6.74,147.18,9.715,98.393,-2.12943e-3
6.76,147.58,9.714,98.391,-2.86266e-3
6.78,147.98,9.714,98.389,-7.28522e-3
6.80,148.38,9.714,98.387,-2.58840e-3
6.82,148.78,9.714,98.386,-3.43676e-3
6.84,149.18,9.714,98.384,-6.41319e-3
6.86,149.58,9.713,98.382,-5.90980e-3
6.88,149.98,9.713,98.380,-4.90151e-3
6.90,150.38,9.713,98.378,-2.17641e-3
6.92,150.78,9.713,98.377,-3.50435e-3
6.94,151.18,9.713,98.375,-5.86537e-3
6.96,151.58,9.713,98.373,-4.10250e-3
6.98,151.98,9.712,98.372,-4.97362e-3
7.00,152.38,9.712,98.370,-5.06485e-3
7.02,152.78,9.712,98.368,-4.62938e-3
7.04,153.18,9.712,98.366,-5.47663e-3
7.06,153.58,9.712,98.365,-3.82676e-3
7.08,153.98,9.712,98.363,-4.17049e-3
7.10,154.38,9.711,98.361,-3.87267e-3
7.12,154.78,9.711,98.359,-4.99494e-3
7.14,155.18,9.711,98.358,-5.10942e-3
7.16,155.58,9.711,98.356,-3.32311e-3
7.18,155.98,9.711,98.355,-4.10302e-3
7.20,156.38,9.711,98.353,-5.24741e-3
7.22,156.77,9.710,98.352,-2.52033e-3
7.24,157.17,9.710,98.350,-3.62024e-3
7.26,157.57,9.710,98.348,-7.74418e-3
7.28,157.97,9.710,98.346,-3.43626e-3
7.30,158.37,9.710,98.344,-3.66556e-3
7.32,158.77,9.710,98.343,-3.18467e-3
7.34,159.17,9.709,98.340,-9.91988e-3
7.36,159.57,9.709,98.340,-4.81210e-4
7.38,159.97,9.709,98.339,-5.04218e-3
7.40,160.37,9.709,98.337,-3.96547e-3
7.42,160.77,9.709,98.335,-9.83364e-3
7.44,161.17,9.708,98.331,-9.07506e-3
7.46,161.57,9.708,98.329,-2.06263e-3
7.48,161.97,9.708,98.329,1.85647e-3
7.50,162.37,9.708,98.328,-1.28305e-3
7.52,162.77,9.708,98.326,-2.26856e-3
7.54,163.17,9.708,98.325,-3.59680e-3
7.56,163.57,9.708,98.323,-2.49716e-3
7.58,163.97,9.707,98.321,-5.93220e-3
7.60,164.37,9.707,98.320,-1.76363e-3
7.62,164.77,9.707,98.318,-8.01649e-3
7.64,165.17,9.707,98.317,-3.18369e-3
7.66,165.57,9.707,98.316,-3.25288e-3
7.68,165.97,9.707,98.314,-4.71888e-3
7.70,166.37,9.707,98.312,-1.69509e-3
7.72,166.76,9.706,98.310,-2.40517e-3
7.74,167.16,9.706,98.308,-3.80393e-3
7.76,167.56,9.706,98.307,-1.48999e-3
7.78,167.96,9.706,98.305,-4.12844e-3
7.80,168.36,9.706,98.304,-6.21845e-3
7.82,168.76,9.706,98.303,-4.24448e-3
7.84,169.16,9.705,98.301,-4.58716e-3
7.86,169.56,9.705,98.299,-3.55422e-3
7.88,169.96,9.705,98.297,9.62533e-4
7.90,170.36,9.705,98.296,8.47846e-4
7.92,170.76,9.705,98.295,-5.15421e-3
7.94,171.16,9.705,98.294,-3.11498e-3
7.96,171.56,9.705,98.292,-2.61032e-3
7.98,171.96,9.705,98.292,-3.98534e-3
8.00,172.36,9.704,98.290,-3.43566e-3
8.02,172.76,9.704,98.289,-2.10769e-3
8.04,173.16,9.704,98.287,-2.63483e-3
8.06,173.56,9.704,98.286,-2.06233e-4
8.08,173.96,9.704,98.286,-5.04125e-4
8.10,174.35,9.704,98.284,-4.44644e-3
8.12,174.75,9.704,98.283,-4.69863e-3
8.14,175.15,9.704,98.282,-2.54391e-3
8.16,175.55,9.703,98.280,-4.90376e-3
8.18,175.95,9.703,98.279,-4.53625e-3
8.20,176.35,9.703,98.277,-1.44313e-3
8.22,176.75,9.703,98.277,-3.22975e-3
8.24,177.15,9.703,98.275,-3.41273e-3
8.26,177.55,9.703,98.274,-2.81722e-3
8.28,177.95,9.703,98.272,-5.65735e-3
8.30,178.35,9.702,98.269,-3.32000e-3
8.32,178.75,9.702,98.269,-3.48101e-3
8.34,179.15,9.702,98.269,3.11460e-3
8.36,179.55,9.702,98.268,-3.38968e-3
8.38,179.95,9.702,98.267,-3.61887e-3
8.40,180.35,9.702,98.264,-6.46123e-3
8.42,180.75,9.702,98.263,-3.75802e-3
8.44,181.15,9.702,98.261,-7.42438e-3
8.46,181.55,9.701,98.260,-3.20773e-3
8.48,181.95,9.701,98.258,-7.55895e-4
8.50,182.35,9.701,98.255,-7.65144e-3
8.52,182.75,9.701,98.253,-6.04593e-3
8.54,183.15,9.701,98.251,-5.49604e-3
8.56,183.55,9.700,98.249,-3.54817e-3
8.58,183.95,9.700,98.247,-7.21058e-3
8.60,184.35,9.700,98.245,-3.20555e-3
8.62,184.75,9.700,98.245,3.43608e-4
8.64,185.15,9.700,98.244,-4.90104e-3
8.66,185.55,9.700,98.243,-1.37408e-3
8.68,185.95,9.700,98.242,-4.19109e-3
8.70,186.35,9.699,98.240,-4.42052e-3
8.72,186.75,9.699,98.239,-6.87298e-4
8.74,187.15,9.699,98.238,-6.34504e-3
8.76,187.54,9.699,98.236,-3.77978e-3
8.78,187.94,9.699,98.234,-4.71760e-3
8.80,188.34,9.699,98.232,-3.36617e-3
8.82,188.74,9.699,98.231,-3.57270e-3
8.84,189.14,9.698,98.230,-6.98486e-3
8.86,189.54,9.698,98.228,-4.78765e-3
8.88,189.94,9.698,98.226,-4.39762e-3
8.90,190.34,9.698,98.223,-4.78787e-3
8.92,190.74,9.698,98.221,-5.33710e-3
8.94,191.14,9.697,98.219,-0.0112680
8.96,191.54,9.697,98.217,-2.74851e-4
8.98,191.94,9.697,98.215,-6.36738e-3
9.00,192.34,9.697,98.214,-1.64968e-3
9.02,192.74,9.697,98.212,-5.38672e-3
9.04,193.14,9.697,98.210,-5.31825e-3
9.06,193.54,9.696,98.209,-2.84193e-3
9.08,193.94,9.696,98.207,-5.04194e-3
9.10,194.34,9.696,98.205,-5.01764e-3
9.12,194.74,9.696,98.204,-4.83210e-3
9.14,195.14,9.696,98.202,-8.15097e-3
9.16,195.54,9.696,98.200,-2.08273e-3
9.18,195.94,9.695,98.199,-7.05034e-3
9.20,196.34,9.695,98.199,-2.22062e-3
9.22,196.74,9.695,98.199,-1.87691e-3
9.24,197.14,9.695,98.198,-0.0105111
9.26,197.54,9.695,98.194,-4.60555e-3
9.28,197.94,9.695,98.192,4.76582e-3
9.30,198.34,9.695,98.194,-2.79519e-3
9.32,198.74,9.695,98.193,-6.09611e-3
9.34,199.14,9.695,98.192,-3.84968e-3
9.36,199.54,9.694,98.190,-5.81822e-3
9.38,199.94,9.694,98.188,-4.53403e-3
9.40,200.33,9.694,98.187,-6.73077e-3
9.42,200.73,9.694,98.185,-6.59406e-3
9.44,201.13,9.694,98.184,-4.30482e-3
9.46,201.53,9.694,98.182,-3.68842e-3
9.48,201.93,9.694,98.181,-5.34082e-3
9.50,202.33,9.693,98.180,-1.60477e-3
9.52,202.73,9.693,98.179,-6.21560e-3
9.54,203.13,9.693,98.177,-4.19742e-3
9.56,203.53,9.693,98.176,-4.33345e-3
9.58,203.93,9.693,98.174,-3.62099e-3
9.60,204.33,9.693,98.173,-6.23081e-3
9.62,204.73,9.693,98.171,-1.00754e-3
9.64,205.13,9.692,98.169,-3.45666e-3
9.66,205.53,9.692,98.168,-6.15782e-3
9.68,205.93,9.692,98.165,-5.10601e-3
9.70,206.33,9.692,98.163,-5.77111e-3
9.72,206.73,9.692,98.162,-3.75802e-3
9.74,207.13,9.691,98.159,-8.22719e-3
9.76,207.53,9.691,98.158,-1.28363e-3
9.78,207.93,9.691,98.157,-6.50924e-3
9.80,208.33,9.691,98.155,-5.08773e-3
9.82,208.73,9.691,98.153,-2.17690e-3
9.84,209.13,9.691,98.152,-2.15318e-3
9.86,209.53,9.691,98.150,-5.61101e-3
9.88,209.93,9.690,98.148,-5.81502e-3
9.90,210.33,9.690,98.146,-8.63018e-3
9.92,210.72,9.690,98.144,-4.96743e-3
9.94,211.12,9.690,98.143,-2.63337e-3
9.96,211.52,9.690,98.141,-6.96065e-3
9.98,211.92,9.690,98.140,-3.00003e-3
10.00,212.32,9.689,98.138,-4.00877e-3
10.02,212.72,9.689,98.136,-2.88699e-3
10.04,213.12,9.689,98.135,-1.60368e-3
10.06,213.52,9.689,98.134,-5.91064e-3
10.08,213.92,9.689,98.132,-3.93908e-3
10.10,214.32,9.689,98.130,-6.66356e-3
10.12,214.72,9.688,98.128,-2.79301e-3
10.14,215.12,9.688,98.126,-6.63919e-3
10.16,215.52,9.688,98.124,-1.03022e-3
10.18,215.92,9.688,98.123,-4.92378e-3
10.20,216.32,9.688,98.120,-0.0126872
10.22,216.72,9.688,98.119,1.39731e-3
10.24,217.12,9.687,98.118,-4.39804e-3
10.26,217.52,9.687,98.116,-4.30556e-3
10.28,217.92,9.687,98.114,-7.51157e-3
10.30,218.32,9.687,98.112,-1.37405e-3
10.32,218.72,9.687,98.110,-5.61051e-3
10.34,219.12,9.686,98.109,-3.15978e-3
10.36,219.52,9.686,98.107,-5.42757e-3
10.38,219.92,9.686,98.105,-2.74855e-4
10.40,220.32,9.686,98.104,-3.68824e-3
10.42,220.72,9.686,98.101,-4.00917e-3
10.44,221.12,9.686,98.100,-2.29095e-3
10.46,221.52,9.685,98.097,-7.42175e-3
10.48,221.92,9.685,98.096,-2.42783e-3
10.50,222.32,9.685,98.095,-4.32912e-3
10.52,222.72,9.685,98.093,-1.37430e-4
10.54,223.12,9.685,98.091,-6.06823e-3
10.56,223.52,9.685,98.090,-6.75526e-3
10.58,223.92,9.684,98.088,-4.48777e-3
10.60,224.32,9.684,98.086,-4.57981e-3
10.62,224.72,9.684,98.084,-2.49672e-3
10.64,225.12,9.684,98.082,-5.52063e-3
10.66,225.52,9.684,98.081,-3.55041e-3
10.68,225.92,9.684,98.080,-5.08475e-3
10.70,226.32,9.683,98.077,-4.78699e-3
10.72,226.71,9.683,98.076,-3.29776e-3
10.74,227.11,9.683,98.075,-2.29067e-3
10.76,227.51,9.683,98.073,-2.10698e-3
10.78,227.91,9.683,98.072,-6.09391e-3
10.80,228.31,9.683,98.070,-2.51970e-3
10.82,228.71,9.682,98.068,-4.69576e-3
10.84,229.11,9.682,98.066,-6.20705e-3
10.86,229.51,9.682,98.064,-4.97022e-3
10.88,229.91,9.682,98.063,-4.23671e-3
10.90,230.31,9.682,98.061,-3.55016e-3
10.92,230.71,9.682,98.059,-5.56527e-3
10.94,231.11,9.681,98.058,-5.26871e-3
10.96,231.51,9.681,98.056,-4.69643e-3
10.98,231.91,9.681,98.055,-2.19931e-3
11.00,232.31,9.681,98.053,-4.69801e-3
11.02,232.71,9.681,98.052,-4.92703e-3
11.04,233.11,9.681,98.050,-3.71209e-3
11.06,233.51,9.680,98.048,-3.64229e-3
11.08,233.91,9.680,98.046,-3.98408e-3
11.10,234.31,9.680,98.044,-5.40293e-3
11.12,234.71,9.680,98.042,-4.76126e-3
11.14,235.11,9.680,98.041,-2.24359e-3
11.16,235.51,9.680,98.039,-3.22777e-3
11.18,235.91,9.679,98.038,-4.92233e-3
11.20,236.31,9.679,98.035,-5.42761e-3
11.22,236.71,9.679,98.033,-4.58946e-5
11.24,237.11,9.679,98.032,-6.78277e-3
11.26,237.51,9.679,98.031,4.58295e-4
11.28,237.91,9.679,98.029,-5.31498e-3
11.30,238.31,9.678,98.026,-6.66579e-3
11.32,238.71,9.678,98.025,-3.73197e-3
11.34,239.11,9.678,98.024,-5.28724e-3
11.36,239.51,9.678,98.022,-2.63240e-3
11.38,239.91,9.678,98.020,-4.96637e-3
11.40,240.31,9.678,98.019,-2.08300e-3
11.42,240.71,9.677,98.017,-1.99176e-3
11.44,241.11,9.677,98.015,-2.97658e-3
11.46,241.51,9.677,98.014,-2.84080e-3
11.48,241.91,9.677,98.013,-5.17733e-3
11.50,242.30,9.677,98.011,-6.37030e-3
11.52,242.70,9.677,98.009,-4.67610e-3
11.54,243.10,9.676,98.008,-3.87313e-3
11.56,243.50,9.676,98.005,-2.58877e-3
11.58,243.90,9.676,98.005,-1.83288e-3
11.60,244.30,9.676,98.003,-5.56618e-3
11.62,244.70,9.676,98.001,-1.05344e-3
11.64,245.10,9.676,98.000,-8.15018e-3
11.66,245.50,9.676,97.998,-2.31200e-3
11.68,245.90,9.675,97.997,-2.28854e-3
11.70,246.30,9.675,97.995,-5.44872e-3
11.72,246.70,9.675,97.993,-4.09704e-3
11.74,247.10,9.675,97.991,-4.89986e-3
11.76,247.50,9.675,97.990,-3.32052e-3
11.78,247.90,9.675,97.989,-4.67188e-3
11.80,248.30,9.674,97.987,-4.94675e-3
11.82,248.70,9.674,97.986,-4.64917e-3
11.84,249.10,9.674,97.984,-8.54056e-3
11.86,249.50,9.674,97.982,-1.60275e-3
11.88,249.90,9.674,97.981,-3.34340e-3
11.90,250.30,9.674,97.979,-7.19194e-3
11.92,250.70,9.674,97.978,-7.78846e-4
11.94,251.10,9.673,97.977,-3.13912e-3
11.96,251.50,9.673,97.975,-4.83456e-3
11.98,251.90,9.673,97.974,-2.58900e-3
12.00,252.30,9.673,97.972,-2.40587e-3
12.02,252.70,9.673,97.971,-3.45894e-3
12.04,253.10,9.673,97.969,-2.67884e-3
12.06,253.50,9.673,97.969,-1.30477e-3
12.08,253.90,9.672,97.967,-3.59404e-3
12.10,254.30,9.672,97.965,-1.44210e-3
12.12,254.70,9.672,97.964,-3.54853e-3
12.14,255.10,9.672,97.963,-3.70966e-3
12.16,255.50,9.672,97.962,-7.32936e-4
12.18,255.90,9.672,97.961,-4.69602e-3
12.20,256.30,9.672,97.959,5.72529e-4
12.22,256.70,9.672,97.958,-5.29138e-3
12.24,257.10,9.671,97.957,-3.22997e-3
12.26,257.50,9.671,97.956,-2.88590e-3
12.28,257.90,9.671,97.955,-2.45020e-3
12.30,258.30,9.671,97.953,-8.56381e-3
12.32,258.69,9.671,97.952,-4.09915e-3
12.34,259.09,9.671,97.951,-2.77140e-3
12.36,259.49,9.671,97.950,-2.19919e-3
12.38,259.89,9.671,97.949,-3.09264e-3
12.40,260.29,9.671,97.948,-3.45830e-3
12.42,260.69,9.670,97.947,-7.10030e-4
12.44,261.09,9.670,97.946,-2.97547e-3
12.46,261.49,9.670,97.945,-4.96877e-3
12.48,261.89,9.670,97.943,-5.26435e-4
12.50,262.29,9.670,97.942,-2.10682e-3
12.52,262.69,9.670,97.941,-1.85497e-3
12.54,263.09,9.670,97.941,-1.96926e-3
12.56,263.49,9.670,97.939,-6.87019e-4
12.58,263.89,9.670,97.939,-2.33677e-3
12.60,264.29,9.670,97.938,-2.74981e-4
12.62,264.69,9.670,97.937,-2.86350e-3
12.64,265.09,9.669,97.936,-3.71127e-3
12.66,265.49,9.669,97.936,-5.95569e-4
12.68,265.89,9.669,97.935,-3.54994e-3
12.70,266.29,9.669,97.935,-1.07630e-3
12.72,266.69,9.669,97.934,1.51168e-3
12.74,267.09,9.669,97.933,-3.64172e-3
12.76,267.49,9.669,97.932,-1.55802e-3
12.78,267.89,9.669,97.931,-2.84264e-3
12.80,268.29,9.669,97.931,-3.62329e-3
12.82,268.69,9.669,97.929,-1.26116e-3
12.84,269.09,9.669,97.928,2.49915e-3
12.86,269.49,9.669,97.928,-4.62973e-3
12.88,269.89,9.668,97.926,-3.48304e-3
12.90,270.29,9.668,97.926,1.64875e-3
12.92,270.69,9.668,97.925,-4.16559e-3
12.94,271.09,9.668,97.925,-1.83033e-4
12.96,271.49,9.668,97.924,-4.57699e-4
12.98,271.89,9.668,97.922,-2.81550e-3
13.00,272.29,9.668,97.922,1.37398e-3
13.02,272.69,9.668,97.921,2.47294e-3
13.04,273.09,9.668,97.922,-9.38645e-4
13.06,273.48,9.668,97.924,-1.85440e-3
13.08,273.88,9.668,97.923,8.92543e-4
13.10,274.29,9.668,97.923,2.76882e-3
13.12,274.69,9.668,97.924,-4.23241e-3
13.14,275.09,9.668,97.922,-2.26405e-3
13.16,275.49,9.668,97.922,-1.87557e-3
13.18,275.89,9.668,97.921,-2.31065e-3
13.20,276.29,9.668,97.920,-1.82962e-4
13.22,276.69,9.668,97.919,-3.75458e-3
13.24,277.09,9.668,97.918,6.64062e-4
13.26,277.49,9.668,97.918,-2.33625e-3
13.28,277.89,9.668,97.917,-3.18356e-3
13.30,278.29,9.667,97.915,9.15919e-5
13.32,278.68,9.667,97.915,-2.01559e-3
13.34,279.08,9.667,97.914,-3.38900e-3
13.36,279.48,9.667,97.912,-2.33584e-3
13.38,279.88,9.667,97.911,-4.89927e-3
13.40,280.28,9.667,97.910,6.86813e-5
13.42,280.68,9.667,97.909,-6.02106e-3
13.44,281.08,9.667,97.908,-6.50183e-3
13.46,281.48,9.667,97.907,-9.61987e-4
13.48,281.88,9.666,97.905,-2.65747e-3
13.50,282.28,9.666,97.904,-8.04080e-3
13.52,282.68,9.666,97.903,2.56645e-3
13.54,283.08,9.666,97.902,-2.52020e-4
13.56,283.48,9.666,97.898,2.70322e-3
13.58,283.88,9.666,97.897,-1.28247e-3
13.60,284.28,9.665,97.896,-5.74741e-3
13.62,284.68,9.665,97.894,-1.30495e-3
13.64,285.08,9.665,97.893,-4.71612e-3
13.66,285.48,9.665,97.891,-2.79304e-3
13.68,285.88,9.665,97.889,-4.16861e-3
13.70,286.28,9.665,97.887,-6.73525e-3
13.72,286.68,9.664,97.885,-3.20807e-3
13.74,287.08,9.664,97.883,-5.08599e-3
13.76,287.48,9.664,97.881,-2.49771e-3
13.78,287.88,9.664,97.880,2.74889e-4
13.80,288.28,9.664,97.879,-4.53578e-3
13.82,288.68,9.664,97.877,-4.05445e-3
13.84,289.08,9.663,97.875,-4.21425e-3
13.86,289.48,9.663,97.873,-4.90027e-3
13.88,289.88,9.663,97.871,-3.02198e-3
13.90,290.28,9.663,97.869,-5.44727e-3
13.92,290.68,9.662,97.862,-0.0118992
13.94,291.08,9.662,97.859,-3.22746e-3
13.96,291.48,9.662,97.862,0.0148810
13.98,291.88,9.662,97.862,-6.93786e-3
14.00,292.28,9.662,97.860,-8.88515e-3
14.02,292.68,9.662,97.859,-3.57283e-3
14.04,293.08,9.662,97.856,-3.52671e-3
14.06,293.48,9.661,97.854,-3.86905e-3
14.08,293.88,9.661,97.853,-7.32459e-3
14.10,294.28,9.661,97.851,-5.85967e-3
14.12,294.68,9.661,97.849,-5.63333e-3
14.14,295.08,9.661,97.847,-9.56960e-3
14.16,295.48,9.661,97.846,-3.02310e-3
14.18,295.88,9.660,97.845,-9.18388e-3
14.20,296.28,9.660,97.843,-2.70259e-3
14.22,296.68,9.660,97.841,-3.11491e-3
14.24,297.07,9.660,97.841,-3.25164e-3
14.26,297.47,9.660,97.840,-4.09900e-3
14.28,297.87,9.660,97.838,-2.49542e-3
14.30,298.27,9.660,97.837,-2.58734e-3
14.32,298.67,9.659,97.835,-3.68686e-3
14.34,299.07,9.659,97.833,-6.98454e-3
14.36,299.47,9.659,97.832,-4.60287e-3
14.38,299.87,9.659,97.830,-2.40491e-3
14.40,300.27,9.659,97.828,-7.25998e-3
14.42,300.67,9.659,97.827,6.86989e-4
14.44,301.07,9.658,97.825,-3.66373e-3
14.46,301.47,9.658,97.824,-6.84524e-3
14.48,301.87,9.658,97.821,1.30495e-3
14.50,302.27,9.658,97.821,-1.96924e-3
14.52,302.67,9.658,97.821,-3.54853e-3
14.54,303.07,9.658,97.819,-3.38828e-3
14.56,303.47,9.658,97.818,-3.25243e-3
14.58,303.87,9.658,97.817,-3.73511e-3
14.60,304.27,9.658,97.815,-2.22273e-3
14.62,304.67,9.657,97.814,-5.79743e-3
14.64,305.07,9.657,97.813,-9.16918e-4
14.66,305.47,9.657,97.811,-2.01650e-3
14.68,305.87,9.657,97.809,-6.23113e-3
14.70,306.27,9.657,97.808,-5.26741e-4
14.72,306.67,9.657,97.806,-2.83883e-3
14.74,307.07,9.656,97.804,-7.55205e-3
14.76,307.47,9.656,97.802,-8.90161e-3
14.78,307.87,9.656,97.800,-1.16719e-3
14.80,308.27,9.656,97.799,-4.14266e-3
14.82,308.67,9.656,97.797,-4.90023e-3
14.84,309.07,9.656,97.795,-4.37387e-3
14.86,309.47,9.655,97.794,-3.13787e-3
14.88,309.87,9.655,97.792,-6.36933e-3
14.90,310.27,9.655,97.790,7.10013e-4
14.92,310.67,9.655,97.789,-5.26733e-4
14.94,311.07,9.655,97.788,-2.26691e-3
14.96,311.47,9.655,97.786,-7.76311e-3
14.98,311.87,9.654,97.783,-2.33574e-3
15.00,312.27,9.654,97.783,-3.54853e-3
15.02,312.67,9.654,97.781,-2.88462e-3
15.04,313.07,9.654,97.779,-7.99059e-3
15.06,313.47,9.654,97.777,-5.83791e-3
15.08,313.87,9.654,97.775,-7.64855e-3
15.10,314.27,9.653,97.773,-3.45696e-3
15.12,314.67,9.653,97.771,-1.16787e-3
15.14,315.07,9.653,97.770,-4.99207e-3
15.16,315.47,9.653,97.768,-2.97671e-3
15.18,315.87,9.653,97.766,-3.68684e-3
15.20,316.26,9.652,97.764,-5.61155e-3
15.22,316.66,9.652,97.762,-1.87819e-3
15.24,317.06,9.652,97.760,-6.98577e-3
15.26,317.46,9.652,97.758,-1.60324e-3
15.28,317.86,9.652,97.757,-1.32850e-3
15.30,318.26,9.652,97.755,-5.86458e-3
15.32,318.66,9.651,97.752,-0.0118873
15.34,319.06,9.651,97.750,-1.32876e-3
15.36,319.46,9.651,97.747,-6.70895e-3
15.38,319.86,9.651,97.745,-9.11172e-3
15.40,320.26,9.650,97.742,-6.06457e-3
15.42,320.66,9.650,97.739,-7.55001e-3
15.44,321.06,9.650,97.736,-4.32499e-3
15.46,321.46,9.649,97.734,-3.20463e-3
15.48,321.86,9.649,97.732,-4.14377e-3
15.50,322.26,9.649,97.730,-9.80034e-3
15.52,322.66,9.649,97.727,-5.31383e-3
15.54,323.06,9.649,97.725,-5.52088e-3
15.56,323.46,9.648,97.722,-7.24106e-3
15.58,323.86,9.648,97.720,-5.20165e-3
15.60,324.26,9.648,97.718,-8.89329e-3
15.62,324.66,9.648,97.715,-7.56187e-3
15.64,325.06,9.647,97.711,-8.38680e-3
15.66,325.46,9.647,97.708,-7.00736e-3
15.68,325.86,9.647,97.706,-6.50062e-3
15.70,326.26,9.646,97.702,-5.95238e-3
15.72,326.66,9.646,97.700,-7.75964e-3
15.74,327.06,9.646,97.694,-0.0169185
15.76,327.46,9.645,97.693,-7.23904e-3
15.78,327.86,9.645,97.691,-5.17685e-3
15.80,328.26,9.645,97.687,-6.98584e-3
15.82,328.66,9.645,97.684,-6.02204e-3
15.84,329.06,9.644,97.682,-0.0101419
15.86,329.46,9.644,97.679,-0.0133843
15.88,329.86,9.644,97.675,-9.67969e-3
15.90,330.26,9.643,97.672,-4.82927e-3
15.92,330.66,9.643,97.668,-9.68271e-3
15.94,331.06,9.643,97.666,-4.76326e-3
15.96,331.46,9.642,97.662,-8.36002e-3
15.98,331.86,9.642,97.657,-0.0114803
16.00,332.26,9.642,97.654,-9.43900e-3
16.02,332.66,9.641,97.650,-0.0100346
16.04,333.06,9.641,97.646,-0.0116145
16.06,333.46,9.640,97.642,-0.0112210
16.08,333.86,9.640,97.638,-0.0103917
16.10,334.26,9.640,97.634,-0.0105520
16.12,334.66,9.639,97.630,-0.0116509
16.14,335.06,9.639,97.625,-0.0140836
16.16,335.45,9.638,97.621,-0.0136941
16.18,335.85,9.638,97.616,-0.0104014
16.20,336.25,9.637,97.611,-0.0117553
16.22,336.65,9.637,97.606,-0.0110678
16.24,337.05,9.637,97.603,-0.0123936
16.26,337.45,9.636,97.598,-0.0107641
16.28,337.85,9.636,97.593,-0.0122516
16.30,338.25,9.635,97.589,-0.0112866
16.32,338.65,9.635,97.583,-0.0141053
16.34,339.05,9.634,97.577,-0.0110379
16.36,339.45,9.633,97.572,-0.0133263
16.38,339.85,9.633,97.567,-0.0150224
16.40,340.25,9.632,97.561,-0.0159154
16.42,340.65,9.632,97.555,-0.0160743
16.44,341.05,9.631,97.548,-0.0218052
16.46,341.45,9.631,97.543,-9.87160e-3
16.48,341.85,9.630,97.537,-0.0142451
16.50,342.25,9.629,97.531,-0.0165169
16.52,342.65,9.629,97.524,-0.0173203
16.54,343.05,9.628,97.518,-0.0186297
16.56,343.45,9.627,97.511,-0.0183497
16.58,343.85,9.627,97.504,-0.0169720
16.60,344.25,9.626,97.497,-0.0249542
16.62,344.65,9.625,97.489,-0.0200494
16.64,345.05,9.625,97.481,-0.0175531
16.66,345.45,9.624,97.473,-0.0214436
16.68,345.85,9.623,97.465,-0.0200264
16.70,346.25,9.622,97.457,-0.0226648
16.72,346.65,9.621,97.450,-0.0165796
16.74,347.05,9.621,97.442,-0.0228419
16.76,347.45,9.620,97.433,-0.0318626
16.78,347.85,9.619,97.423,-0.0214175
16.80,348.25,9.618,97.414,-0.0231105
16.82,348.65,9.617,97.404,-0.0221841
16.84,349.05,9.616,97.394,-0.0258541
16.86,349.45,9.615,97.384,-0.0271978
16.88,349.85,9.614,97.373,-0.0261905
16.90,350.25,9.613,97.361,-0.0299679
16.92,350.65,9.612,97.350,-0.0356526
16.94,351.05,9.610,97.337,-0.0313159
16.96,351.45,9.609,97.326,-0.0285898
16.98,351.85,9.608,97.309,-0.0348273
17.00,352.24,9.606,97.296,-0.0340972
17.02,352.64,9.605,97.282,-0.0342221
17.04,353.04,9.603,97.266,-0.0695704
17.06,353.44,9.602,97.250,-0.0343574
17.08,353.84,9.600,97.235,-0.0394051
17.10,354.24,9.599,97.219,-0.0369920
17.12,354.64,9.596,97.190,-0.126062
17.14,355.04,9.594,97.171,-0.0387150
17.16,355.44,9.591,97.145,-0.105133
17.18,355.84,9.589,97.121,-0.0392278
17.20,356.24,9.587,97.104,-0.0977116
17.22,356.64,9.583,97.065,-0.111924
17.24,357.04,9.580,97.033,-0.106403
17.26,357.44,9.577,97.003,-0.111522
17.28,357.84,9.574,96.965,-0.0655623
17.30,358.24,9.570,96.934,-0.150172
17.32,358.64,9.566,96.889,-0.108525
17.34,359.04,9.561,96.833,-0.126823
17.36,359.44,9.555,96.774,-0.0854168
17.38,359.84,9.549,96.718,-0.193201
17.40,360.24,9.538,96.603,-0.390957
17.42,360.64,9.533,96.553,-0.0122750
17.44,361.04,9.531,96.535,-0.0631591
17.46,361.44,9.524,96.462,-0.226755
17.48,361.84,9.519,96.411,-0.150256
17.50,362.24,9.514,96.360,-0.151758
17.52,362.64,9.506,96.286,-0.189744
17.54,363.04,9.499,96.214,-0.143596
17.56,363.44,9.492,96.139,-0.123682
17.58,363.84,9.485,96.065,-0.148034
17.60,364.24,9.475,95.965,-0.342389
17.62,364.64,9.467,95.890,-0.0990616
17.64,365.04,9.460,95.817,-0.145945
17.66,365.44,9.452,95.729,-0.227145
17.68,365.84,9.441,95.621,-0.147824
17.70,366.24,9.433,95.541,-0.292008
17.72,366.64,9.425,95.456,-0.276328
17.74,367.04,9.415,95.361,-0.223681
17.76,367.44,9.404,95.251,-0.275023
17.78,367.84,9.396,95.168,-0.247115
17.80,368.24,9.384,95.047,-0.336699
17.82,368.64,9.373,94.933,-0.242880
17.84,369.04,9.360,94.803,-0.235131
17.86,369.44,9.351,94.713,-0.258193
17.88,369.84,9.340,94.599,-0.226848
17.90,370.24,9.330,94.493,-0.220093
17.92,370.64,9.316,94.353,-0.489501
17.94,371.04,9.302,94.217,-0.359678
17.96,371.44,9.291,94.102,-0.168590
17.98,371.84,9.279,93.979,-0.513646
18.00,372.24,9.265,93.835,-0.243018
18.02,372.64,9.250,93.684,-0.397767
18.04,373.04,9.237,93.559,-0.298817
18.06,373.44,9.223,93.414,-0.287930
18.08,373.84,9.209,93.271,-0.272514
18.10,374.24,9.193,93.113,-0.491299
18.12,374.64,9.180,92.975,-0.164125
18.14,375.04,9.165,92.830,-0.357769
18.16,375.44,9.149,92.666,-0.308608
18.18,375.84,9.131,92.482,-0.417615
18.20,376.24,9.117,92.340,-0.693590
18.22,376.64,9.100,92.174,-0.297865
18.24,377.04,9.083,91.994,-0.480701
18.26,377.44,9.068,91.845,-0.557624
18.28,377.84,9.049,91.653,-0.0454782
18.30,378.24,9.033,91.486,-0.775883
18.32,378.64,9.015,91.306,-0.489023
18.34,379.04,8.997,91.128,-0.529529
18.36,379.44,8.978,90.936,-0.587794
18.38,379.84,8.959,90.741,-0.342735
18.40,380.24,8.941,90.558,-0.537569
18.42,380.63,8.923,90.379,-0.702413
18.44,381.03,8.903,90.172,-0.534636
18.46,381.43,8.880,89.940,-0.857418
18.48,381.83,8.862,89.756,-0.399038
18.50,382.23,8.839,89.525,-0.300363
18.52,382.63,8.818,89.315,-0.507623
18.54,383.03,8.799,89.119,-0.642715
18.56,383.43,8.778,88.903,-0.479656
18.58,383.83,8.755,88.674,-0.654511
18.60,384.23,8.734,88.461,-0.620918
18.62,384.63,8.708,88.199,-0.730145
18.64,385.03,8.685,87.961,-0.477859
18.66,385.43,8.667,87.786,-0.543355
18.68,385.83,8.639,87.498,-0.132975
18.70,386.23,8.617,87.275,-0.656256
18.72,386.63,8.596,87.061,-0.530140
18.74,387.03,8.569,86.792,-0.425490
18.76,387.43,8.544,86.538,-0.729670
18.78,387.83,8.516,86.250,-0.803409
18.80,388.23,8.492,86.012,-0.805831
18.82,388.63,8.465,85.740,-1.01956
18.84,389.03,8.437,85.457,-0.917150
18.86,389.43,8.409,85.168,-0.517705
18.88,389.83,8.385,84.923,-0.919313
18.90,390.23,8.358,84.657,-0.899470
18.92,390.63,8.328,84.350,-0.768960
18.94,391.03,8.300,84.068,-0.539541
18.96,391.43,8.271,83.767,-0.615886
18.98,391.83,8.245,83.509,-0.569540
19.00,392.23,8.214,83.194,-0.729464
19.02,392.63,8.186,82.907,-0.746635
19.04,393.03,8.153,82.575,-1.00510
19.06,393.43,8.123,82.274,-0.978457
19.08,393.83,8.093,81.972,-0.881644
19.10,394.23,8.063,81.662,-0.983825
19.12,394.63,8.031,81.346,-0.810084
19.14,395.03,7.997,80.999,-1.26436
19.16,395.43,7.972,80.740,-1.01617
19.18,395.83,7.935,80.373,-1.03759
19.20,396.23,7.907,80.080,-1.03853
19.22,396.63,7.874,79.750,-0.798346
19.24,397.03,7.837,79.377,-0.699157
19.26,397.43,7.806,79.059,-1.19320
19.28,397.83,7.775,78.751,-0.668796
19.30,398.23,7.740,78.389,-0.286404
19.32,398.63,7.708,78.066,-0.893475
19.34,399.03,7.674,77.725,-0.749936
19.36,399.42,7.639,77.372,-0.885270
19.38,399.82,7.603,77.007,-1.02386
19.40,400.22,7.573,76.706,-1.04181
19.42,400.62,7.540,76.368,-1.06277
19.44,401.02,7.508,76.047,-0.984478
19.46,401.42,7.474,75.697,-0.747164
19.48,401.82,7.440,75.357,-1.13923
19.50,402.22,7.409,75.039,-0.793132
19.52,402.62,7.374,74.688,-0.945222
19.54,403.02,7.339,74.334,-0.743765
19.56,403.42,7.310,74.034,-0.898683
19.58,403.82,7.277,73.705,-0.787332
19.60,404.22,7.244,73.374,-0.678666
19.62,404.62,7.213,73.059,-0.523749
19.64,405.02,7.179,72.716,-0.913949
19.66,405.42,7.148,72.396,-0.809613
19.68,405.82,7.118,72.090,-0.867813
19.70,406.22,7.085,71.756,-1.10206
19.72,406.62,7.049,71.394,-0.417369
19.74,407.02,7.024,71.143,-0.717497
19.76,407.42,6.997,70.872,-0.834889
19.78,407.82,6.969,70.580,-0.810093
19.80,408.22,6.939,70.284,-0.647583
19.82,408.62,6.911,69.996,-0.746196
19.84,409.02,6.879,69.670,-0.531508
19.86,409.42,6.856,69.442,-0.756682
19.88,409.82,6.822,69.094,-0.264233
19.90,410.22,6.798,68.849,-0.724689
19.92,410.61,6.771,68.581,-0.424679
19.94,411.01,6.737,68.236,-0.453437
19.96,411.41,6.715,68.016,-0.643240
19.98,411.81,6.685,67.711,-0.0994042
20.00,412.21,6.660,67.455,-0.794803
20.02,412.61,6.642,67.277,-0.710793
20.04,413.01,6.615,67.004,-0.926512
20.06,413.41,6.592,66.767,-0.863084
20.08,413.81,6.565,66.489,-0.807576
20.10,414.21,6.539,66.231,-0.593582
20.12,414.61,6.523,66.067,-0.836751
20.14,415.01,6.497,65.808,-0.426058
20.16,415.41,6.478,65.608,-0.622654
20.18,415.81,6.457,65.399,-0.267246
20.20,416.21,6.433,65.153,-0.319316
20.22,416.61,6.415,64.978,-0.760826
20.24,417.01,6.398,64.799,-0.565055
20.26,417.41,6.381,64.629,-0.674338
20.28,417.81,6.364,64.453,-0.315907
20.30,418.21,6.351,64.326,-0.109876
20.32,418.61,6.336,64.176,-0.231108
20.34,419.01,6.319,64.000,-0.417504
20.36,419.40,6.308,63.885,-0.258062
20.38,419.80,6.291,63.721,-0.364725
20.40,420.20,6.282,63.626,-0.248665
20.42,420.60,6.271,63.513,-0.405430
20.44,421.00,6.261,63.418,-0.249003
20.46,421.40,6.251,63.316,-0.275782
20.48,421.80,6.243,63.234,-0.120752
20.50,422.20,6.238,63.185,-0.0803225
20.52,422.60,6.233,63.130,-0.121930
20.54,423.00,6.228,63.075,-0.292610
20.56,423.40,6.223,63.030,-0.0416935
20.58,423.80,6.218,62.983,-0.0823536
20.60,424.20,6.213,62.924,-0.183174
20.62,424.60,6.208,62.877,-0.0360439
20.64,425.00,6.205,62.844,-0.194070
20.66,425.40,6.201,62.802,-0.0456885
20.68,425.80,6.196,62.760,-0.0549022
20.70,426.20,6.193,62.722,-0.0664913
20.72,426.60,6.189,62.683,-0.0622827
20.74,427.00,6.186,62.658,-0.0933912
20.76,427.40,6.180,62.595,-0.0779420
20.78,427.80,6.177,62.568,-0.119227
20.80,428.20,6.173,62.525,-0.0343364
20.82,428.60,6.170,62.490,-0.0505647
20.84,429.00,6.166,62.455,-0.0736812
20.86,429.40,6.163,62.417,-0.0956422
20.88,429.80,6.160,62.391,-0.0226846
20.90,430.20,6.155,62.341,-0.138825
20.92,430.59,6.152,62.315,-0.0539492
20.94,430.99,6.147,62.262,-0.0427999
20.96,431.39,6.145,62.243,-0.0573441
20.98,431.79,6.143,62.216,-0.155082
21.00,432.19,6.140,62.185,-0.0981226
21.02,432.59,6.137,62.157,-0.0433008
21.04,432.99,6.133,62.122,-0.154049
21.06,433.39,6.130,62.090,-0.0639946
21.08,433.79,6.127,62.055,-0.0666851
21.10,434.19,6.125,62.034,-0.0531540
21.12,434.59,6.122,62.005,-0.151718
21.14,434.99,6.119,61.971,-0.0340820
21.16,435.39,6.116,61.942,-0.0775970
21.18,435.79,6.113,61.917,-0.0610964
21.20,436.19,6.110,61.887,-0.0523020
21.22,436.59,6.108,61.864,-0.0596997
21.24,436.99,6.105,61.838,-0.0321406
21.26,437.39,6.103,61.812,-0.0319233
21.28,437.79,6.099,61.778,-0.0602093
21.30,438.19,6.097,61.750,-0.0467183
21.32,438.59,6.094,61.718,-0.0313526
21.34,438.99,6.092,61.704,-0.0332227
21.36,439.39,6.090,61.678,-0.0360016
21.38,439.79,6.088,61.666,-0.0314273
21.40,440.19,6.085,61.636,-0.0285567
21.42,440.59,6.083,61.616,-0.0531292
21.44,440.99,6.082,61.596,-0.0325812
21.46,441.39,6.080,61.579,-0.0454469
21.48,441.79,6.078,61.559,-0.0332608
21.50,442.19,6.076,61.541,-0.0564756
21.52,442.59,6.074,61.517,-0.0394151
21.54,442.99,6.072,61.501,-0.0317342
21.56,443.38,6.071,61.487,-0.0509438
21.58,443.78,6.069,61.467,-0.0407578
21.60,444.18,6.067,61.453,-0.0351836
21.62,444.58,6.066,61.434,-0.0297663
21.64,444.98,6.064,61.417,-0.0276048
21.66,445.38,6.061,61.384,-0.0288461
21.68,445.78,6.059,61.368,-0.0250458
21.70,446.18,6.058,61.357,-0.0330750
21.72,446.58,6.056,61.336,-0.0675642
21.74,446.98,6.054,61.314,-0.0295027
21.76,447.38,6.052,61.301,-0.0274977
21.78,447.78,6.050,61.277,-0.0687214
21.80,448.18,6.049,61.264,-0.0369145
21.82,448.58,6.047,61.250,-0.0326077
21.84,448.98,6.046,61.236,-0.0331768
21.86,449.38,6.044,61.217,-0.0583181
21.88,449.78,6.043,61.206,-0.0268125
21.90,450.18,6.041,61.190,-0.0294562
21.92,450.58,6.040,61.178,-0.0352401
21.94,450.98,6.039,61.165,-0.0412691
21.96,451.38,6.037,61.150,-0.0300221
21.98,451.78,6.035,61.125,-0.0399799
22.00,452.18,6.033,61.110,-0.0301619
22.02,452.58,6.032,61.094,-0.0299642
22.04,452.98,6.031,61.083,-0.0280513
22.06,453.38,6.030,61.070,-0.0399228
22.08,453.78,6.028,61.052,-0.0395798
22.10,454.18,6.027,61.039,-0.0237866
22.12,454.58,6.025,61.027,-0.0278313
22.14,454.98,6.024,61.012,-0.0320005
22.16,455.37,6.022,60.989,-0.0908570
22.18,455.77,6.020,60.975,-0.0208237
22.20,456.17,6.019,60.962,-0.0342232
22.22,456.57,6.018,60.948,-0.0926735
22.24,456.97,6.015,60.926,-0.0300847
22.26,457.37,6.014,60.910,-0.0263170
22.28,457.77,6.013,60.899,-0.0184836
22.30,458.17,6.010,60.876,-0.108652
22.32,458.57,6.009,60.859,-0.0434225
22.34,458.97,6.007,60.845,-0.0241825
22.36,459.37,6.006,60.830,-0.0254352
22.38,459.77,6.004,60.815,-0.0372841
22.40,460.17,6.003,60.802,-0.0258752
22.42,460.57,6.002,60.792,-0.0253436
22.44,460.97,6.001,60.778,-0.0377010
22.46,461.37,5.999,60.764,-0.0500804
22.48,461.77,5.997,60.737,-0.0287617
22.50,462.17,5.995,60.717,-0.0308463
22.52,462.57,5.993,60.704,-0.0323442
22.54,462.97,5.992,60.693,-0.0266452
22.56,463.37,5.991,60.675,-0.0201956
22.58,463.77,5.989,60.662,-0.0469307
22.60,464.17,5.987,60.637,-0.108856
22.62,464.57,5.985,60.622,-0.0368301
22.64,464.97,5.984,60.609,-0.0266949
22.66,465.37,5.982,60.589,-0.0734766
22.68,465.77,5.981,60.575,-0.0456489
22.70,466.17,5.979,60.555,-0.0864459
22.72,466.57,5.977,60.540,-0.0340857
22.74,466.96,5.976,60.525,-0.0434843
22.76,467.36,5.973,60.495,-0.107707
22.78,467.76,5.971,60.482,-0.0504159
22.80,468.16,5.970,60.464,-0.0384337
22.82,468.56,5.968,60.447,-0.0266425
22.84,468.96,5.965,60.420,-0.0880930
22.86,469.36,5.964,60.403,-0.0504698
22.88,469.76,5.962,60.384,-0.0607405
22.90,470.16,5.956,60.325,-0.118178
22.92,470.56,5.954,60.301,-0.0821917
22.94,470.96,5.952,60.281,-0.0281219
22.96,471.36,5.950,60.268,-0.0272397
22.98,471.76,5.948,60.246,-0.153010
23.00,472.16,5.945,60.216,-0.0787456
23.02,472.56,5.944,60.199,-0.0593437
23.04,472.96,5.942,60.179,-0.110408
23.06,473.36,5.937,60.129,-0.0493976
23.08,473.76,5.934,60.103,-0.120483
23.10,474.16,5.931,60.073,-0.0174874
23.12,474.56,5.929,60.049,-0.104352
23.14,474.96,5.925,60.014,-0.162356
23.16,475.36,5.923,59.987,-0.0443471
23.18,475.76,5.918,59.938,-0.255165
23.20,476.16,5.914,59.904,-0.0575237
23.22,476.56,5.910,59.862,-0.0947323
23.24,476.96,5.909,59.846,-0.0577965
23.26,477.36,5.905,59.810,-0.0759963
23.28,477.76,5.902,59.774,-0.106838
23.30,478.16,5.898,59.736,-0.143278
23.32,478.56,5.893,59.691,-0.123132
23.34,478.95,5.887,59.631,-0.0492317
23.36,479.35,5.885,59.601,-0.107572
23.38,479.75,5.880,59.550,-0.0454726
23.40,480.15,5.875,59.508,-0.0591958
23.42,480.55,5.871,59.462,-0.0694053
23.44,480.95,5.868,59.433,-0.188623
23.46,481.35,5.861,59.359,-0.102422
23.48,481.75,5.857,59.323,-0.0834500
23.50,482.15,5.853,59.282,-0.0806464
23.52,482.55,5.843,59.183,-0.0694484
23.54,482.95,5.841,59.159,-0.0636146
23.56,483.35,5.837,59.116,-0.0971537
23.58,483.75,5.830,59.045,-0.0679652
23.60,484.15,5.826,59.010,-0.0674038
23.62,484.55,5.822,58.964,-0.0700812
23.64,484.95,5.819,58.933,-0.141428
23.66,485.35,5.813,58.881,-0.0750251
23.68,485.75,5.808,58.829,-0.0459670
23.70,486.15,5.804,58.784,-8.42770e-3
23.72,486.54,5.800,58.742,-0.0332748
23.74,486.94,5.797,58.710,-0.103280
23.76,487.34,5.792,58.668,-0.105442
23.78,487.74,5.790,58.646,-0.0368349
23.80,488.14,5.789,58.632,-0.0574393
23.82,488.54,5.787,58.609,-0.0622886
23.84,488.94,5.783,58.575,-0.0459576
23.86,489.34,5.782,58.560,-0.0677380
23.88,489.74,5.779,58.537,-0.0400870
23.90,490.14,5.778,58.524,-0.0266547
23.92,490.54,5.777,58.511,-0.0266864
23.94,490.93,5.776,58.499,-0.0314967
23.96,491.33,5.774,58.486,-0.0398816
23.98,491.73,5.773,58.469,-0.0579943
24.00,492.13,5.772,58.458,-0.0244037
24.02,492.53,5.769,58.426,-0.0526377
24.04,492.93,5.767,58.412,-0.0290517
24.06,493.33,5.766,58.397,-0.0254243
24.08,493.73,5.764,58.385,-0.0325948
24.10,494.13,5.763,58.371,-0.0282833
24.12,494.53,5.761,58.353,-0.0342233
24.14,494.93,5.761,58.345,-0.0228430
24.16,495.33,5.759,58.328,-0.0333106
24.18,495.73,5.758,58.315,-0.0444258
24.20,496.12,5.756,58.300,-0.0762613
24.22,496.52,5.755,58.286,-0.0478696
24.24,496.92,5.753,58.269,-0.0366306
24.26,497.32,5.752,58.259,-0.0201971
24.28,497.72,5.751,58.251,-0.0194775
24.30,498.12,5.748,58.222,-0.0653280
24.32,498.52,5.747,58.207,-0.0258316
24.34,498.92,5.745,58.188,-0.0346102
24.36,499.32,5.744,58.175,-0.0238974
24.38,499.72,5.742,58.159,-0.0685088
24.40,500.12,5.741,58.146,-0.0394012
24.42,500.52,5.739,58.128,-0.0298694
24.44,500.92,5.738,58.113,-0.0292886
24.46,501.32,5.736,58.100,-0.0440409
24.48,501.72,5.735,58.087,-0.0795580
24.50,502.12,5.733,58.066,-0.0343629
24.52,502.52,5.731,58.044,-0.0995875
24.54,502.92,5.729,58.029,-0.0247891
24.56,503.32,5.728,58.016,-0.0256118
24.58,503.71,5.727,58.003,-0.0421264
24.60,504.11,5.724,57.978,-0.0381749
24.62,504.51,5.722,57.951,-0.0341659
24.64,504.91,5.720,57.933,-0.0391496
24.66,505.31,5.718,57.915,-0.0306340
24.68,505.71,5.716,57.898,-0.0414146
24.70,506.11,5.715,57.880,-0.0366182
24.72,506.51,5.713,57.861,-0.0284518
24.74,506.91,5.711,57.841,-0.0387442
24.76,507.31,5.709,57.823,-0.0410632
24.78,507.71,5.706,57.798,-0.105305
24.80,508.11,5.705,57.778,-0.0886343
24.82,508.51,5.703,57.758,-0.173740
24.84,508.91,5.699,57.722,-0.0264601
24.86,509.31,5.697,57.697,-0.0748500
24.88,509.71,5.451,55.212,8.00466
24.90,510.11,4.829,48.913,1.36292
24.92,510.50,5.277,53.449,14.8372
24.94,510.90,5.302,53.698,35.0869
24.96,511.29,5.661,57.332,1.02136
24.98,511.69,5.617,56.887,3.62319
25.00,512.08,5.666,57.390,2.17797
25.02,512.48,5.588,56.597,4.94235
25.04,512.87,5.659,57.318,0.0556137
25.06,513.27,5.646,57.189,-7.24501e-3
25.08,513.67,4.915,49.777,-22.7395
25.10,514.07,5.653,57.251,4.86454
25.12,514.47,5.639,57.115,0.824752
25.14,514.87,5.641,57.131,-1.64527
25.16,515.27,5.647,57.190,1.00721
25.18,515.67,5.637,57.095,-0.294838
25.20,516.07,5.636,57.079,-0.0466701
25.22,516.47,5.632,57.047,-3.82522e-3
25.24,516.87,5.629,57.015,-0.121779
25.26,517.28,5.628,56.999,-9.22694e-3
25.28,517.68,5.623,56.955,-0.0737317
25.30,518.08,5.617,56.891,-0.103145
25.32,518.48,5.611,56.829,-0.0657570
25.34,518.88,5.606,56.782,-0.129447
25.36,519.28,5.604,56.756,-0.0166316
25.38,519.68,5.600,56.714,-0.0612219
25.40,520.08,5.593,56.652,-0.443611
25.42,520.48,5.588,56.594,-0.199219
25.44,520.88,5.581,56.528,-0.114634
25.46,521.28,5.579,56.502,-0.140568
25.48,521.68,5.572,56.436,-0.0197460
25.50,522.08,5.565,56.366,-0.104151
25.52,522.49,5.557,56.283,-0.277571
25.54,522.89,5.549,56.201,-0.0986381
25.56,523.29,5.541,56.122,-0.187660
25.58,523.69,5.534,56.046,-0.169088
25.60,524.09,5.522,55.924,-0.249516
25.62,524.49,5.517,55.874,-0.147990
25.64,524.89,5.511,55.816,-0.232835
25.66,525.29,5.502,55.726,-0.0864591
25.68,525.69,5.495,55.654,-0.259324
25.70,526.09,5.487,55.571,-0.194059
25.72,526.49,5.478,55.479,-0.207601
25.74,526.89,5.471,55.408,-0.388735
25.76,527.29,5.461,55.310,-0.111619
25.78,527.69,5.455,55.248,-0.188117
25.80,528.09,5.447,55.172,-0.137684
25.82,528.49,5.436,55.059,-0.220855
25.84,528.89,5.426,54.953,-0.450381
25.86,529.29,5.414,54.840,-0.268938
25.88,529.68,5.404,54.737,-0.331866
25.90,530.08,5.400,54.689,-0.0888029
25.92,530.48,5.392,54.609,-0.238136
25.94,530.88,5.381,54.504,-0.178851
25.96,531.28,5.366,54.353,1.96365e-3
25.98,531.68,5.360,54.284,-0.0512313
26.00,532.08,5.354,54.223,-0.314245
26.02,532.48,5.338,54.064,0.0384948
26.04,532.88,5.335,54.034,-0.0777584
26.06,533.28,5.323,53.909,-0.614009
26.08,533.68,5.314,53.821,-0.111869
26.10,534.08,5.306,53.745,-0.177716
26.12,534.45,5.294,53.622,-0.368990